Timestamp(s),trunk_Accel_X,trunk_Accel_Y,trunk_Accel_Z,trunk_Gyro_X,trunk_Gyro_Y,trunk_Gyro_Z,trunk_MAG_X,trunk_MAG_Y,trunk_MAG_Z,foot_Accel_X,foot_Accel_Y,foot_Accel_Z,foot_Gyro_X,foot_Gyro_Y,foot_Gyro_Z,foot_MAG_X,foot_MAG_Y,foot_MAG_Z,shank_Accel_X,shank_Accel_Y,shank_Accel_Z,shank_Gyro_X,shank_Gyro_Y,shank_Gyro_Z,shank_MAG_X,shank_MAG_Y,shank_MAG_Z,thigh_Accel_X,thigh_Accel_Y,thigh_Accel_Z,thigh_Gyro_X,thigh_Gyro_Y,thigh_Gyro_Z,thigh_MAG_X,thigh_MAG_Y,thigh_MAG_Z,Label
33.45,-9.63,-0.60,0.45,-1.12,0.69,-0.13,26.00,1.56,40.69,-5.28,0.50,8.22,-0.19,0.06,-0.25,75.56,14.38,-1.19,-9.30,-0.67,0.65,-1.56,0.44,0.25,26.75,1.56,41.56,-9.77,-0.15,0.00,0.31,0.31,-0.44,33.56,-2.06,49.06,walk
33.48,-9.66,-0.57,0.08,-5.56,-1.69,0.06,26.75,1.56,41.56,-5.28,0.49,8.19,-0.25,-0.06,-0.25,75.56,14.38,-1.19,-9.41,-0.64,0.47,2.19,1.31,0.37,26.75,1.56,41.56,-9.83,-0.11,0.04,0.19,0.37,-0.37,33.56,-2.50,50.00,walk
33.51,-9.64,-0.66,0.33,2.50,-1.44,-0.25,26.00,2.00,40.69,-5.25,0.50,8.26,-0.19,0.19,-0.31,75.19,14.00,-1.56,-9.50,-0.71,0.55,0.56,0.88,-0.13,26.00,2.00,40.69,-9.77,-0.24,-0.07,0.31,0.19,-0.25,33.56,-2.50,50.00,walk
33.54,-9.52,-0.68,0.45,-0.88,3.69,0.31,26.00,2.00,40.69,-5.29,0.50,8.22,-0.19,0.06,-0.31,75.19,14.00,-1.56,-9.53,-0.67,0.47,-2.12,0.94,0.25,26.00,2.00,40.69,-9.83,-0.11,0.00,2.44,0.06,-0.50,34.00,-2.75,50.25,walk
33.57,-9.54,-0.67,0.53,-3.19,-1.06,0.06,26.37,2.00,42.38,-5.26,0.50,8.23,-0.19,0.37,-0.44,75.19,14.00,0.00,-9.47,-0.65,0.54,-1.56,-2.50,-0.88,26.37,2.00,42.38,-9.78,-0.09,-0.02,1.06,0.31,-0.62,34.00,-2.75,50.25,walk
33.60,-9.58,-0.61,0.40,-0.25,-3.94,-1.25,26.37,2.00,42.38,-5.29,0.49,8.23,-0.19,0.31,-0.25,75.19,13.69,-1.06,-9.50,-0.60,0.45,0.44,-4.00,-1.00,25.69,2.00,42.38,-9.77,-0.18,0.00,-0.13,0.13,-0.56,33.56,-2.06,50.25,walk
33.63,-9.38,-0.62,0.54,-0.13,-4.37,-0.75,25.69,2.00,42.38,-5.25,0.48,8.22,-0.25,0.31,-0.19,75.19,13.69,-1.06,-9.33,-0.67,0.53,1.12,-2.37,-1.00,25.69,2.00,42.38,-9.77,-0.22,0.00,1.00,0.81,-0.50,33.56,-1.69,50.25,walk
33.66,-9.28,-0.71,0.63,4.12,-2.00,-1.50,26.75,1.56,41.56,-5.27,0.52,8.24,-0.19,0.25,-0.19,75.19,14.38,-1.06,-9.22,-0.72,0.57,5.44,-3.06,-1.94,26.75,1.56,41.56,-9.75,-0.22,-0.13,2.44,-0.25,-0.56,33.56,-1.69,50.25,walk
33.69,-9.56,-0.76,0.49,6.25,-1.25,-2.37,26.75,1.56,41.56,-5.29,0.52,8.21,0.00,-0.19,-0.25,75.19,14.38,-1.06,-9.54,-0.77,0.45,7.06,-1.81,-2.12,26.75,1.56,41.56,-9.80,-0.14,-0.16,4.50,-0.19,-0.75,34.38,-2.50,49.50,walk
33.72,-9.61,-0.78,0.46,7.06,-1.69,-1.94,26.00,1.19,41.88,-5.28,0.49,8.24,-0.13,-0.13,0.06,76.00,13.69,-1.19,-9.53,-0.73,0.51,1.50,-1.06,-1.25,26.00,1.19,41.88,-9.82,-0.08,-0.23,2.81,-0.19,-0.56,34.38,-2.50,49.50,walk
33.75,-9.36,-0.77,0.62,0.06,0.44,-1.19,26.00,1.19,41.88,-5.26,0.53,8.27,-0.13,0.00,-0.31,76.69,13.69,-0.75,-9.36,-0.77,0.62,2.25,1.19,-1.12,26.37,0.88,40.38,-9.87,-0.17,-0.02,1.31,-0.56,-0.50,34.06,-2.06,49.25,walk
33.78,-9.42,-0.78,0.58,4.81,2.50,-1.19,26.37,0.88,40.38,-5.30,0.50,8.26,-0.19,0.56,-0.56,76.69,13.69,-0.75,-9.45,-0.79,0.59,5.69,2.69,-1.44,26.37,0.88,40.38,-9.77,-0.43,-0.14,1.19,-1.12,-0.31,34.00,-2.75,50.00,walk
33.81,-9.44,-0.76,0.59,6.50,3.19,-1.81,26.37,1.56,41.88,-5.30,0.48,8.25,0.06,0.06,-0.13,74.50,14.75,-1.25,-9.48,-0.79,0.61,8.31,3.31,-2.19,26.37,1.56,41.88,-9.84,-0.17,-0.13,7.12,-0.62,-0.69,34.00,-2.75,50.00,walk
33.84,-9.50,-0.76,0.57,8.94,3.56,-2.00,26.37,1.56,41.88,-5.27,0.51,8.23,0.13,0.25,-0.06,74.50,14.75,-1.25,-9.57,-0.79,0.56,8.56,3.94,-1.81,26.37,1.56,41.88,-9.87,-0.06,-0.08,6.62,-0.62,-1.06,34.00,-2.06,49.56,walk
33.87,-9.37,-0.83,0.65,8.75,4.81,-1.81,25.25,2.25,41.56,-5.27,0.51,8.18,-0.06,0.37,-0.19,75.19,14.38,-0.75,-9.38,-0.87,0.67,10.56,5.75,-2.12,25.25,2.25,41.56,-9.88,-0.35,0.00,5.25,-0.75,-0.19,34.00,-2.06,49.56,walk
33.90,-9.51,-0.72,0.66,14.75,6.37,-2.62,25.25,2.25,41.56,-5.23,0.59,8.25,0.00,1.62,-0.75,75.19,13.25,-1.06,-9.51,-0.72,0.66,16.50,6.81,-2.44,26.37,1.19,41.56,-9.86,-0.41,0.13,8.25,-1.56,0.19,33.69,-1.69,49.75,walk
33.93,-9.64,-0.74,0.59,18.37,7.12,-1.56,26.37,1.19,41.56,-5.30,0.49,8.21,0.25,2.00,-1.25,75.19,13.25,-1.06,-9.78,-0.75,0.40,18.00,5.81,-1.50,26.37,1.19,41.56,-9.81,-0.16,0.14,13.69,-1.50,0.37,34.38,-1.69,50.00,walk
33.96,-9.67,-0.73,0.37,17.25,4.62,-1.44,26.37,1.19,41.56,-5.31,0.50,8.27,-0.06,1.50,-1.12,74.50,14.00,-1.69,-9.40,-0.66,0.46,16.81,3.62,-2.25,26.00,2.69,41.56,-9.83,-0.12,0.09,15.44,-2.31,-0.25,34.38,-1.69,50.00,walk
33.99,-9.41,-0.68,0.57,17.06,5.62,-2.37,26.00,2.69,41.56,-5.34,0.45,8.23,0.25,1.25,-0.81,74.50,14.00,-1.69,-9.42,-0.67,0.67,17.62,6.56,-2.56,26.00,2.69,41.56,-9.76,-0.03,-0.02,14.44,-3.44,-0.06,34.00,-1.00,49.19,walk
34.02,-9.47,-0.65,0.57,18.19,7.50,-2.69,26.00,4.19,42.38,-5.40,0.43,8.15,0.69,0.44,-0.06,74.75,14.38,-1.56,-9.41,-0.64,0.26,17.19,7.50,-3.44,26.00,4.19,42.38,-9.63,-0.11,-0.24,11.06,-1.87,-0.50,34.00,-1.00,49.19,walk
34.05,-9.39,-0.65,0.27,14.81,6.75,-4.56,26.00,4.19,42.38,-5.33,0.50,8.23,0.31,0.37,0.19,74.75,14.38,-0.37,-9.39,-0.61,0.23,14.00,7.19,-4.56,25.25,3.75,42.38,-9.80,-0.04,-0.06,6.69,0.44,-0.81,35.06,0.06,49.75,walk
34.08,-9.49,-0.67,0.32,14.38,7.25,-4.69,25.25,3.75,42.38,-5.27,0.54,8.17,0.25,0.44,-0.13,74.75,14.38,-0.37,-9.51,-0.61,0.32,14.25,7.31,-4.44,25.25,3.75,42.38,-9.88,-0.15,-0.12,4.19,0.37,-0.94,34.00,0.88,49.56,walk
34.11,-9.50,-0.57,0.49,13.38,7.44,-4.31,24.87,6.06,43.06,-5.33,0.55,8.25,0.69,1.19,-0.69,75.19,14.00,0.00,-9.48,-0.57,0.46,12.63,8.13,-4.56,24.87,6.06,43.06,-9.89,-0.05,0.02,4.00,1.12,-0.56,34.00,0.88,49.56,walk
34.14,-9.57,-0.63,0.37,13.00,10.56,-4.50,24.87,6.06,43.06,-5.41,0.38,8.20,1.00,0.81,-0.75,75.19,14.00,0.00,-9.62,-0.72,0.22,14.31,9.88,-4.44,24.87,6.06,43.06,-9.65,-0.18,-0.12,8.50,0.56,-0.13,34.38,0.50,48.75,walk
34.17,-9.67,-0.83,-0.02,15.63,8.44,-4.31,25.00,6.50,42.69,-5.36,0.48,8.17,0.81,-0.81,0.50,74.06,14.38,-1.56,-9.44,-0.82,-0.13,15.63,5.69,-3.37,25.00,6.50,42.69,-9.62,-0.02,0.15,7.56,1.44,-1.75,34.38,0.50,48.75,walk
34.20,-9.34,-0.79,-0.03,11.31,5.37,-3.12,25.00,6.50,42.69,-5.36,0.45,8.18,-0.13,-0.75,0.56,75.19,14.38,-0.75,-9.27,-0.70,0.08,8.25,6.44,-3.69,24.56,6.50,43.19,-9.68,0.10,0.09,5.94,0.75,-1.12,34.00,0.88,49.19,walk
34.23,-9.29,-0.40,0.30,4.31,9.00,-5.06,24.56,6.50,43.19,-5.23,0.60,8.24,0.00,-1.06,0.94,75.19,14.38,-0.75,-9.40,-0.33,0.30,4.44,9.44,-5.25,24.56,6.50,43.19,-9.98,0.12,0.09,-1.37,1.00,-2.62,34.00,0.88,49.19,walk
34.26,-9.67,-0.32,0.22,4.12,9.31,-4.44,25.75,6.50,42.75,-5.34,0.49,8.22,-0.31,-0.50,0.00,74.87,13.69,-1.69,-9.63,-0.33,0.17,2.81,9.19,-4.50,25.75,6.50,42.75,-9.66,0.00,-0.23,-4.56,2.25,-2.06,33.69,1.19,49.69,walk
34.29,-9.39,-0.40,0.01,0.62,8.75,-6.19,25.75,6.50,42.75,-5.37,0.39,8.17,-0.81,-1.81,1.06,74.87,13.69,-1.69,-9.35,-0.38,0.00,-0.50,8.81,-7.00,25.75,6.50,42.75,-9.59,-0.10,-0.16,-5.00,4.87,-3.25,33.69,1.50,49.56,walk
34.32,-9.34,-0.29,0.19,-1.12,8.69,-7.50,23.19,7.19,42.69,-5.33,0.50,8.18,-1.06,-2.56,1.44,75.19,14.38,-0.37,-9.42,-0.23,0.21,-4.00,10.50,-7.81,23.19,7.19,42.69,-9.66,0.05,0.06,-7.06,6.81,-4.87,33.69,1.50,49.56,walk
34.35,-9.49,-0.24,0.25,-8.56,13.31,-8.50,23.19,7.19,42.69,-5.32,0.50,8.26,-1.12,-2.81,1.94,74.87,14.00,-0.37,-9.61,-0.26,0.26,-10.38,13.25,-9.19,24.00,7.19,43.19,-9.84,0.30,0.07,-9.31,7.87,-5.81,33.69,1.19,49.25,walk
34.38,-9.61,-0.23,0.21,-12.44,10.75,-11.50,24.00,7.19,43.19,-5.32,0.43,8.24,-0.56,-2.56,2.00,74.87,14.00,-0.37,-9.55,-0.27,0.17,-13.81,9.88,-12.75,24.00,7.19,43.19,-9.78,0.13,0.02,-9.19,8.00,-5.75,33.25,0.88,49.38,walk
34.41,-9.43,-0.40,0.34,-13.25,9.50,-13.25,23.56,6.75,44.38,-5.35,0.37,8.30,2.44,-3.56,2.94,74.87,14.00,-1.69,-9.27,-0.51,0.44,-11.75,9.50,-12.81,23.56,6.75,44.38,-9.70,-0.20,0.67,-9.38,6.06,-6.87,33.25,0.88,49.38,walk
34.44,-8.99,-0.69,0.20,-7.75,12.25,-9.81,23.56,6.75,44.38,-5.32,0.45,8.39,2.87,-4.37,4.12,74.87,14.00,-1.69,-8.98,-0.76,-0.03,-3.44,14.44,-7.19,23.56,6.75,44.38,-9.84,-0.18,1.96,-10.94,1.00,-7.00,33.25,1.50,51.25,walk
34.47,-9.35,-0.97,-0.53,4.06,13.88,-3.06,22.50,7.50,44.38,-4.95,0.92,8.11,4.00,-5.06,4.12,74.75,14.00,-0.37,-9.43,-1.01,-0.42,4.37,11.63,-2.69,22.50,7.50,44.38,-9.79,-0.11,2.82,-8.44,-8.75,-4.81,33.25,1.50,51.25,walk
34.50,-9.50,-1.04,0.00,2.75,7.56,-2.94,22.50,7.50,44.38,-4.69,0.98,8.32,1.69,2.75,-2.94,76.00,13.69,-1.56,-9.41,-1.13,0.00,4.06,5.69,-3.19,22.87,7.87,44.38,-9.80,-0.28,3.92,-9.25,-23.25,-2.62,33.00,0.88,49.25,walk
34.53,-9.01,-1.46,-0.23,8.88,6.81,-2.25,22.87,7.87,44.38,-4.85,0.94,8.67,3.56,8.88,-7.25,76.00,13.69,-1.56,-8.77,-1.74,-0.34,10.25,8.75,-0.88,22.87,7.87,44.38,-10.16,-0.70,4.56,-2.56,-39.31,-2.00,33.25,-0.25,49.69,walk
34.56,-8.63,-1.89,-0.28,15.88,11.75,2.44,21.50,6.50,44.69,-4.65,1.99,9.05,13.00,13.25,-10.88,75.25,14.00,-1.25,-8.65,-2.21,0.00,21.25,12.50,2.56,21.50,6.50,44.69,-10.81,-0.88,3.43,31.62,-48.25,-2.19,33.25,-0.25,49.69,walk
34.59,-8.78,-2.34,-0.02,31.19,17.75,1.12,21.50,6.50,44.69,-4.73,2.07,10.00,28.31,42.31,-34.81,75.25,14.00,-1.25,-9.39,-2.49,0.01,32.06,21.19,-0.25,21.50,6.50,44.69,-13.29,-1.07,2.12,35.06,-58.75,-2.75,35.06,1.19,47.69,walk
34.62,-11.23,-2.10,0.08,23.56,23.00,-2.62,21.87,8.25,44.69,-4.44,0.71,9.75,7.69,103.06,-56.88,74.06,13.69,-0.37,-11.94,-1.35,0.05,18.12,18.37,-2.94,21.87,8.25,44.69,-13.19,-0.35,2.14,11.19,-85.69,-1.37,35.06,1.19,47.69,walk
34.65,-11.50,-0.69,0.09,16.06,-0.88,-4.87,21.87,8.25,44.69,-7.53,0.00,10.08,-2.75,130.62,-101.69,74.50,15.19,2.69,-10.63,-0.36,0.43,14.88,-8.13,-6.25,21.87,9.00,45.69,-10.45,-1.94,0.98,-48.13,-116.44,-0.88,38.38,1.87,46.88,walk
34.68,-10.17,-0.29,0.73,2.87,-8.81,-8.63,21.87,9.00,45.69,0.51,8.20,12.29,50.50,107.37,-120.37,74.50,15.19,2.69,-9.30,-0.58,1.65,-5.69,-5.31,-9.69,21.87,9.00,45.69,-8.07,-1.07,0.30,28.25,-76.37,-10.00,42.38,0.88,42.56,walk
34.72,-9.15,-1.01,1.68,-16.75,2.31,-11.31,22.37,9.38,45.56,1.82,6.77,9.76,18.69,-8.63,-101.00,73.00,18.87,10.38,-9.18,-1.28,1.47,-16.31,5.06,-12.00,22.37,9.38,45.56,-9.54,0.69,0.76,23.75,-49.75,-11.44,42.38,0.88,42.56,walk
34.75,-9.26,-2.18,0.26,-2.12,6.12,-13.88,22.37,9.38,45.56,1.27,5.98,9.22,35.25,-37.88,-3.69,68.37,23.25,13.25,-8.66,-2.65,-0.36,1.06,4.62,-14.00,20.87,9.25,45.56,-8.00,0.81,1.78,-2.94,-48.50,-3.44,47.50,2.25,38.06,walk
34.78,-8.48,-2.70,-0.41,6.56,1.44,-12.75,20.87,9.25,45.56,-1.37,3.16,11.02,22.56,-44.38,48.06,68.37,23.25,13.25,-8.58,-2.70,-0.26,7.50,1.50,-11.31,20.87,9.25,45.56,-8.30,0.95,2.37,-30.56,-35.81,-3.62,47.50,2.25,38.06,walk
34.81,-8.98,-2.68,0.22,6.25,2.31,-9.25,22.06,9.25,45.56,-4.36,1.67,12.74,30.25,-73.12,76.00,69.19,22.69,15.19,-9.18,-2.70,0.45,4.19,1.69,-8.44,22.06,9.25,45.56,-8.27,0.36,2.36,-59.63,-40.00,-3.12,48.69,2.25,36.69,walk
34.85,-9.28,-2.44,0.53,3.56,-2.25,-6.31,22.06,9.25,45.56,-4.04,0.74,10.80,36.31,-119.44,74.81,69.19,22.69,15.19,-9.33,-2.30,0.54,4.75,-3.94,-5.06,22.06,9.25,45.56,-7.91,-0.78,2.86,-69.37,-36.50,-2.87,51.56,2.69,33.69,walk
34.87,-9.38,-2.14,0.50,5.00,-5.31,-3.69,20.19,10.00,45.88,-4.09,1.09,9.72,36.00,-124.50,60.63,75.75,20.06,16.75,-9.33,-1.88,0.45,2.44,-6.75,-1.37,20.19,10.00,45.88,-7.80,-1.45,3.11,-52.94,-30.31,-1.56,51.56,2.69,33.69,walk
34.90,-9.22,-1.81,0.68,-2.81,-7.75,0.06,20.19,10.00,45.88,-4.46,1.08,8.93,31.25,-103.31,50.19,89.56,17.69,3.50,-9.29,-1.82,0.76,-3.50,-8.19,0.88,22.06,11.19,44.69,-7.14,-2.46,3.39,9.50,-17.25,4.75,52.69,1.19,32.75,walk
34.94,-9.33,-1.91,1.04,-2.62,-9.38,2.69,22.06,11.19,44.69,-8.33,1.60,10.59,25.87,-72.31,50.69,89.56,17.69,3.50,-9.22,-1.90,1.31,-3.56,-8.56,3.75,22.06,11.19,44.69,-7.11,-2.01,3.75,53.25,6.44,8.81,52.75,0.00,31.00,walk
34.97,-9.10,-1.75,1.45,-7.56,-8.00,5.50,23.25,10.00,45.06,-9.76,-1.02,9.94,16.00,-97.06,63.81,92.50,11.69,-18.00,-8.94,-1.66,1.26,-11.75,-6.44,6.81,23.25,10.00,45.06,-6.75,-0.80,4.81,72.06,17.75,13.50,52.75,0.00,31.00,walk
35.01,-9.09,-1.92,1.17,-11.69,-0.75,6.50,23.25,10.00,45.06,-8.16,-2.60,5.72,35.50,-114.00,54.00,84.06,4.69,-31.37,-9.09,-1.92,1.17,-12.00,2.31,6.37,23.56,10.75,44.38,-9.06,0.53,5.31,41.19,26.50,19.94,54.56,0.37,31.37,walk
35.03,-9.77,-2.31,1.21,-16.56,3.81,6.31,23.56,10.75,44.38,-8.55,-1.53,3.68,25.25,-84.81,3.56,84.06,4.69,-31.37,-10.21,-2.69,1.08,-18.00,3.75,6.56,23.56,10.75,44.38,-9.49,-0.08,5.29,-5.94,23.75,19.00,53.50,2.19,30.25,walk
35.07,-10.82,-3.09,1.12,-17.56,2.31,7.00,24.75,8.88,43.56,-10.36,-0.41,3.02,13.00,-41.38,-9.25,73.19,0.88,-40.19,-11.02,-3.17,1.23,-16.75,0.50,7.50,24.75,8.88,43.56,-10.63,-2.04,6.42,-31.56,7.00,13.56,53.50,2.19,30.25,walk
35.10,-11.20,-3.20,1.61,-14.19,-7.37,7.62,24.75,8.88,43.56,-8.97,-0.58,3.59,-2.50,-10.31,13.69,73.19,0.88,-40.19,-11.03,-3.18,1.78,-12.75,-11.44,7.37,24.75,8.88,43.56,-7.96,-1.42,4.52,-14.06,1.94,13.56,55.06,1.75,31.50,walk
35.13,-10.26,-2.78,2.22,-11.88,-15.06,6.87,24.00,9.69,43.56,-1.94,-2.68,4.15,-74.12,120.37,-1.25,65.00,0.25,-42.69,-10.06,-2.62,2.42,-13.50,-12.75,5.31,24.00,9.69,43.56,-9.09,0.15,3.20,-15.25,30.12,10.94,55.06,1.75,31.50,walk
35.16,-9.99,-2.21,2.51,-13.69,-9.25,4.12,24.00,9.69,43.56,-2.37,-1.02,14.38,-58.63,128.62,-3.87,63.06,1.06,-42.25,-10.10,-2.20,2.38,-14.56,-5.81,3.31,25.37,8.50,42.69,-10.45,-2.82,1.19,-68.37,36.63,13.06,54.25,-0.69,30.75,walk
35.19,-10.67,-2.67,1.51,-13.69,1.37,1.25,25.37,8.50,42.69,-9.13,5.23,10.62,-30.06,141.94,-35.94,63.06,1.06,-42.25,-10.55,-3.32,0.18,-1.50,0.19,-2.50,25.37,8.50,42.69,-13.78,-1.82,6.31,-17.62,40.75,1.62,55.38,-1.37,32.06,walk
35.22,-10.52,-3.67,-0.67,3.31,1.81,-3.00,26.87,8.50,43.06,-7.62,-1.28,10.34,-75.56,56.00,-35.88,66.56,3.25,-37.50,-10.81,-3.96,-1.85,10.19,2.75,-2.69,26.87,8.50,43.06,-7.23,-0.11,-2.19,-44.38,-4.81,25.94,55.38,-1.37,32.06,walk
35.26,-10.48,-3.00,-2.44,37.38,-16.81,-3.62,26.87,8.50,43.06,-5.92,0.12,9.08,-34.63,41.75,-25.50,65.87,6.25,-31.06,-9.09,-1.30,-2.71,33.44,-19.12,-3.06,27.75,7.75,42.69,-8.78,-1.79,-0.96,43.81,24.37,20.56,54.69,-2.50,31.69,walk
35.29,-8.05,1.11,-2.79,6.69,-2.37,0.62,27.75,7.75,42.69,-6.01,-0.19,8.95,-16.37,21.37,-16.87,65.87,6.25,-31.06,-8.06,1.95,-1.81,-5.12,6.50,2.06,27.75,7.75,42.69,-10.14,3.19,-0.92,64.37,62.75,11.00,55.00,-4.37,31.19,walk
35.32,-8.62,1.68,-1.01,-9.88,14.75,4.00,28.87,9.69,41.19,-5.12,0.42,8.57,-3.87,5.44,-5.75,67.50,10.69,-28.06,-9.44,0.50,-0.94,-8.75,12.19,3.87,28.87,9.69,41.19,-9.98,2.37,0.08,14.44,53.81,1.50,55.00,-4.37,31.19,walk
35.35,-9.95,-1.01,-1.00,4.19,9.06,2.50,28.87,9.69,41.19,-5.07,0.75,8.58,-2.25,0.94,-5.12,67.06,10.56,-28.19,-10.32,-2.60,-1.24,29.06,12.88,5.25,28.50,8.88,40.75,-9.18,-0.24,0.29,-3.75,59.06,4.25,54.56,-2.56,33.19,walk
35.39,-10.25,-2.59,-1.45,33.63,11.56,11.56,28.50,8.88,40.75,-4.79,0.36,8.47,-4.12,0.94,-6.44,67.06,10.56,-28.19,-9.71,-1.73,-1.44,28.25,7.12,14.00,28.50,8.88,40.75,-8.99,0.02,0.47,34.00,66.62,3.69,54.56,-2.56,33.19,walk
35.42,-8.80,-0.70,-0.87,15.44,0.31,13.38,28.87,9.25,40.00,-4.79,0.53,8.52,-3.44,1.12,-6.25,67.37,10.50,-28.50,-8.51,-0.28,-0.48,12.81,0.00,12.00,28.87,9.25,40.00,-9.41,0.74,0.61,45.25,66.69,-0.50,53.19,-2.06,34.25,walk
35.45,-8.10,0.04,0.33,12.25,3.87,8.81,28.87,9.25,40.00,-5.09,0.57,8.29,-2.25,4.75,-6.06,67.87,10.75,-28.69,-8.02,-0.01,0.45,11.00,5.56,7.00,28.87,9.25,40.00,-9.14,0.89,0.55,24.06,60.50,-4.56,51.19,-1.25,36.25,walk
35.48,-7.79,-0.40,0.21,10.88,9.25,3.37,28.87,10.75,38.50,-4.99,0.23,8.15,0.94,5.19,-3.75,67.87,10.75,-28.69,-7.82,-0.54,0.07,11.44,11.44,2.50,28.87,10.75,38.50,-9.36,0.60,0.90,10.44,62.81,-1.06,51.19,-1.25,36.25,walk
35.51,-8.10,-0.85,-0.13,9.13,15.13,2.87,29.50,9.69,38.75,-4.79,0.60,8.49,4.87,7.25,-1.44,66.69,10.38,-27.19,-8.07,-0.79,-0.15,6.06,15.19,3.00,29.50,9.69,38.75,-9.33,-0.24,1.46,-0.50,59.19,-0.50,49.00,0.06,38.56,walk
35.54,-8.19,-0.63,-0.18,-2.25,14.00,0.62,29.50,9.69,38.75,-4.83,0.67,8.39,3.50,12.88,-3.75,66.69,10.38,-27.19,-8.41,-0.62,-0.22,-5.44,14.13,-2.19,29.50,9.69,38.75,-9.56,0.09,1.43,7.75,52.63,-0.44,47.75,0.19,39.88,walk
35.57,-8.59,-0.80,-0.15,-4.94,13.19,-2.44,29.19,10.06,39.25,-5.09,0.80,8.23,3.50,23.81,-6.12,67.75,11.06,-27.19,-8.54,-1.08,-0.02,2.94,9.31,-2.12,29.19,10.06,39.25,-9.12,-0.29,0.75,17.81,46.13,2.62,47.75,0.19,39.88,walk
35.60,-8.64,-1.15,0.06,7.37,7.12,-2.56,29.19,10.06,39.25,-5.92,0.40,7.78,3.06,24.44,-8.81,68.19,10.38,-26.06,-8.79,-0.92,0.22,11.69,5.00,-3.56,29.06,10.50,38.75,-9.24,0.40,0.11,24.87,46.81,2.37,46.50,1.00,40.88,walk
35.63,-9.11,-0.64,0.33,14.31,3.37,-4.87,29.06,10.50,38.75,-5.38,0.68,8.37,6.50,15.56,-7.56,68.19,10.38,-26.06,-9.46,-0.33,0.55,10.94,2.00,-2.50,29.06,10.50,38.75,-9.91,0.78,0.27,47.75,47.81,-3.31,46.50,1.00,40.88,walk
35.67,-9.77,-0.27,0.84,8.56,3.00,0.50,29.25,10.88,38.38,-4.90,1.11,8.47,5.12,13.25,-12.88,67.75,11.88,-25.69,-10.14,-0.92,0.45,9.50,3.25,1.62,29.25,10.88,38.38,-10.40,-0.10,0.99,66.12,49.06,-1.62,44.56,2.06,41.88,walk
35.69,-10.35,-1.08,0.22,9.75,5.06,2.06,29.25,10.88,38.38,-3.04,-0.26,10.05,9.75,21.87,-20.31,67.75,11.88,-25.69,-10.56,-1.10,0.14,10.81,4.94,0.75,29.25,10.88,38.38,-11.12,-0.52,1.97,74.06,40.81,-7.37,41.88,3.87,42.50,walk
35.73,-11.15,-0.66,0.42,13.69,-1.75,0.37,28.87,12.00,37.56,-5.33,1.57,8.63,17.50,61.38,-24.94,68.56,12.50,-24.37,-11.54,-0.29,0.82,14.00,-4.50,2.50,28.87,12.00,37.56,-10.68,-0.16,2.15,80.94,27.69,-13.38,41.88,3.87,42.50,walk
35.76,-11.68,-0.15,1.35,14.94,-13.56,8.75,28.87,12.00,37.56,-4.53,1.95,9.76,-28.00,106.75,-42.25,68.87,12.88,-25.06,-11.58,-0.20,1.52,18.06,-17.37,10.81,30.56,11.38,36.38,-12.07,1.38,3.10,90.19,29.25,-15.25,41.38,7.69,43.56,walk
35.78,-11.43,-0.29,1.86,25.00,-15.75,11.88,30.56,11.38,36.38,-4.52,1.65,10.42,-66.00,151.62,-72.75,68.87,12.88,-25.06,-11.61,-0.22,1.36,34.38,-10.50,12.56,30.56,11.38,36.38,-12.61,0.98,7.85,45.88,8.00,-15.69,41.38,7.69,43.56,walk
35.82,-11.00,-0.16,-1.49,31.50,-1.87,14.69,29.69,11.69,34.38,-3.02,3.73,12.47,-92.62,238.12,-129.94,69.56,15.19,-17.50,-10.63,-0.57,-2.85,24.37,4.62,14.06,29.69,11.69,34.38,-13.61,-1.43,6.11,56.81,-94.56,-32.63,40.50,10.69,40.69,walk
35.85,-8.75,-1.70,-5.86,12.00,10.88,12.25,29.69,11.69,34.38,-11.69,-2.71,15.89,-89.06,442.19,-166.87,68.06,20.75,-5.25,-8.55,-2.35,-5.65,1.44,6.75,15.06,30.06,12.56,33.56,-14.02,0.73,-0.50,31.31,-143.62,-8.69,40.00,13.38,38.00,walk
35.88,-8.76,-2.61,-4.74,16.31,-10.94,16.62,30.06,12.56,33.56,-11.88,3.53,15.20,-94.44,499.31,-182.19,68.06,20.75,-5.25,-9.38,-3.13,-3.12,15.56,-16.00,15.50,30.06,12.56,33.56,-15.46,0.24,-5.96,95.06,-157.12,26.56,40.00,13.38,38.00,walk
35.91,-10.12,-2.44,-1.32,6.25,-16.31,13.31,30.06,12.56,33.56,2.99,0.61,12.95,-115.69,338.00,-171.50,60.25,27.50,16.75,-10.70,-0.99,-0.40,-5.25,-12.38,9.75,31.06,12.25,32.75,-13.20,0.97,-3.18,-53.56,-153.31,23.62,44.06,15.50,30.19,walk
35.94,-10.78,0.26,-0.14,-15.88,-2.37,-0.94,31.06,12.25,32.75,1.77,10.31,8.52,93.31,-136.31,95.50,60.25,27.50,16.75,-10.53,0.50,-0.19,-9.00,-7.06,-10.31,31.06,12.25,32.75,-11.86,-0.68,-0.07,-55.81,-125.37,35.00,48.38,16.06,22.69,walk
35.97,-9.79,-0.33,-1.24,-2.62,-7.62,-13.06,31.06,13.06,31.56,1.45,-0.72,6.48,-21.25,-164.81,155.37,44.56,31.69,32.19,-9.56,-0.81,-1.69,2.50,-8.69,-14.69,31.06,13.06,31.56,-10.14,0.04,-0.58,-38.38,-119.81,36.50,48.38,16.06,22.69,walk
36.01,-8.19,-2.04,-1.50,0.75,-14.88,-9.75,31.06,13.06,31.56,-3.85,1.30,9.17,68.56,-191.94,150.94,47.69,29.50,22.06,-7.83,-2.23,-0.94,1.31,-13.75,-8.13,30.75,11.69,31.56,-8.41,-0.35,-2.00,-16.62,-113.12,38.75,50.06,14.56,16.00,walk
36.03,-7.43,-2.17,0.13,3.31,-14.56,-7.25,30.75,11.69,31.56,-7.31,-1.06,10.21,33.06,-281.25,111.31,47.69,29.50,22.06,-7.37,-2.04,0.20,3.44,-15.94,-6.44,30.75,11.69,31.56,-7.77,-0.65,-2.47,-63.19,-102.75,30.62,50.06,14.56,16.00,walk
36.06,-7.35,-1.21,0.16,-1.75,-14.19,-5.06,30.75,11.69,31.56,-5.45,-2.88,7.99,63.56,-341.25,96.37,50.00,24.56,10.25,-7.60,-0.94,0.05,-12.75,-5.87,-3.56,31.06,12.88,28.37,-6.42,-0.32,-3.40,-145.94,-93.69,1.94,50.00,12.25,8.75,walk
36.10,-8.07,-1.38,-0.25,-13.75,1.75,-5.19,31.06,12.88,28.37,-8.86,-2.66,10.89,102.50,-318.50,73.81,50.00,24.56,10.25,-8.20,-1.68,-0.28,-13.75,2.06,-5.94,31.06,12.88,28.37,-6.91,-1.98,-1.60,-110.75,-64.81,2.19,49.19,9.75,4.75,walk
36.13,-8.66,-2.31,-0.18,-12.69,-3.00,-5.56,30.56,13.56,29.19,-10.58,-1.69,11.50,114.75,-312.31,34.44,52.56,22.06,-3.75,-8.67,-2.43,-0.09,-9.25,-5.50,-3.75,30.56,13.56,29.19,-5.55,-2.82,-0.04,30.50,-35.69,9.88,49.19,9.75,4.75,walk
36.16,-8.72,-2.48,0.31,-1.75,-7.44,1.19,30.56,13.56,29.19,-11.52,0.72,11.52,128.62,-269.06,24.81,53.06,16.06,-29.87,-8.90,-2.10,0.76,-1.31,-9.00,3.37,31.50,11.75,28.06,-4.68,-2.33,-0.45,64.00,-16.62,9.00,51.06,9.38,2.37,walk
36.19,-8.95,-1.64,0.93,-4.44,-13.56,6.50,31.50,11.75,28.06,-12.52,-4.12,11.49,127.25,-184.25,75.50,53.06,16.06,-29.87,-8.94,-1.34,0.76,-9.56,-14.13,7.00,31.50,11.75,28.06,-6.57,0.19,1.74,77.37,37.94,-3.00,49.25,8.56,-0.37,walk
36.23,-8.96,-1.11,0.79,-15.81,-12.94,6.44,31.25,11.50,27.25,-21.68,-2.87,10.91,125.06,-130.94,94.56,28.06,4.06,-39.75,-9.47,-1.29,1.58,-18.44,-12.19,6.31,31.25,11.50,27.25,-10.50,4.23,7.63,68.00,68.62,34.00,49.25,8.56,-0.37,walk
36.26,-9.75,-1.50,1.84,-22.94,-9.69,5.69,31.25,11.50,27.25,-33.78,-4.74,-2.41,56.56,-153.75,109.19,21.69,0.50,-36.25,-9.97,-1.81,2.00,-25.94,-7.31,5.06,32.19,11.50,26.50,-15.46,3.84,17.91,-94.19,-0.13,26.06,49.19,10.00,-0.56,walk
36.29,-10.30,-3.58,1.45,-26.25,-5.00,3.25,32.19,11.50,26.50,-4.42,-8.88,-14.93,16.62,-129.94,104.62,21.69,0.50,-36.25,-10.39,-3.92,1.55,-19.37,-2.94,2.19,32.19,11.50,26.50,-10.07,-3.40,8.19,-94.44,-37.63,-17.50,49.19,10.00,-0.56,walk
36.32,-12.21,-3.41,2.93,5.81,-1.06,-3.62,31.69,9.56,25.69,-22.42,2.33,6.62,-33.44,189.00,3.56,15.88,-2.69,-37.38,-12.66,-2.60,3.57,15.50,-10.56,-8.25,31.69,9.56,25.69,-3.64,0.94,-0.32,-46.69,-17.50,13.69,47.88,7.75,0.19,walk
36.35,-12.43,-0.80,4.19,16.94,-27.31,-15.56,31.69,9.56,25.69,3.48,-6.46,6.01,-159.69,131.06,-34.25,15.88,-2.69,-37.38,-11.42,0.64,3.94,7.50,-27.31,-15.81,31.69,9.56,25.69,-9.63,1.44,-2.75,-76.62,52.00,38.00,47.25,7.37,-0.69,walk
36.38,-11.01,0.81,3.49,-16.50,-9.38,-12.75,31.50,10.38,25.25,-18.77,0.37,20.84,-58.38,236.87,-53.94,15.56,-4.06,-36.25,-11.06,-1.43,1.74,-24.75,1.06,-15.25,31.50,10.38,25.25,-18.02,-1.96,6.20,-120.12,116.94,7.50,47.25,7.37,-0.69,walk
36.41,-11.32,-2.65,0.91,-17.06,12.00,-27.62,31.50,10.38,25.25,-4.07,-8.44,14.35,-114.31,43.38,-57.88,20.37,-1.19,-35.88,-11.30,-5.32,-2.17,0.06,17.12,-31.62,31.69,10.25,23.69,-4.05,-11.30,-6.87,-200.44,-78.31,35.63,46.25,5.50,0.75,walk
36.44,-10.85,-4.79,-3.86,16.81,16.44,-21.81,31.69,10.25,23.69,-7.65,1.18,8.86,-15.94,54.50,-31.75,20.37,-1.19,-35.88,-9.16,-0.44,-6.83,18.06,8.69,-13.75,31.69,10.25,23.69,-0.74,0.26,-10.74,231.94,61.75,17.06,46.25,5.50,0.75,walk
36.47,-9.30,0.97,-6.43,3.94,-16.31,-2.87,30.87,10.56,23.25,-5.78,-0.28,8.96,-16.94,14.69,-20.69,23.19,3.00,-34.25,-9.39,2.05,-5.24,-7.37,-21.50,-0.88,30.87,10.56,23.25,-13.28,5.90,-3.15,56.81,115.12,7.19,45.00,4.25,3.56,walk
36.50,-8.76,2.14,0.80,-28.37,-5.06,-4.37,30.87,10.56,23.25,-5.79,0.91,8.69,-8.81,-0.56,-9.81,23.19,3.00,-34.25,-8.76,2.14,0.80,-33.25,10.75,-6.75,30.87,10.56,23.25,-9.52,3.04,-0.13,18.06,78.12,12.44,43.88,3.50,5.56,walk
36.53,-8.98,-0.52,1.52,-34.50,21.31,-7.69,31.37,11.38,22.50,-5.04,0.16,8.70,-2.87,0.75,-6.12,23.19,3.75,-33.69,-9.32,-1.41,0.65,-19.00,25.94,-1.62,31.37,11.38,22.50,-8.66,3.21,0.21,-6.81,86.69,1.06,43.88,3.50,5.56,walk
36.56,-10.53,-2.89,-2.16,-8.94,16.56,12.06,31.37,11.38,22.50,-4.97,0.64,8.40,-2.12,5.56,-5.44,23.69,4.19,-33.69,-10.32,-2.66,-2.41,-10.56,7.69,17.94,31.19,10.56,23.69,-8.86,-1.71,-0.02,-14.75,97.69,5.62,43.19,2.25,9.06,walk
36.59,-8.29,-1.46,-1.07,-15.44,-6.31,20.12,31.19,10.56,23.69,-4.84,0.49,8.64,1.75,8.13,-5.50,23.69,4.19,-33.69,-7.48,-0.99,-0.40,-17.00,-11.56,16.00,31.19,10.56,23.69,-9.36,-0.40,0.75,54.38,97.31,-0.25,43.19,2.25,9.06,walk
36.62,-6.91,-0.70,0.25,-16.00,-13.63,10.81,30.06,9.06,23.69,-5.01,0.77,8.29,2.19,12.81,-5.56,23.06,3.75,-33.75,-5.94,-0.66,1.31,-12.38,-5.50,2.56,30.06,9.06,23.69,-9.18,0.33,0.41,54.81,97.62,-3.00,41.38,2.19,10.38,walk
36.65,-6.33,-0.66,1.10,-8.75,8.19,0.19,30.06,9.06,23.69,-5.38,0.46,8.55,3.19,18.62,-7.00,23.06,3.75,-33.75,-6.33,-0.66,1.10,-6.12,13.50,0.62,30.06,9.06,23.69,-9.76,0.42,1.43,62.31,98.69,-7.50,41.38,2.19,10.38,walk
36.68,-7.42,-0.70,0.36,-3.31,15.31,2.00,29.56,8.75,22.50,-5.03,0.56,8.36,1.87,13.69,-5.12,23.37,4.19,-33.25,-7.69,-0.67,0.11,-2.00,13.88,4.44,29.56,8.75,22.50,-9.45,0.06,0.42,31.19,78.56,-5.62,40.19,2.50,14.50,walk
36.71,-8.10,-0.66,0.08,-4.25,12.50,3.69,29.56,8.75,22.50,-5.31,0.92,8.28,5.81,15.06,-8.13,24.50,4.50,-34.06,-8.23,-0.79,0.19,-5.69,14.19,1.75,29.69,8.00,23.75,-9.69,0.28,0.90,23.44,74.56,-0.56,38.06,3.87,16.06,walk
36.74,-8.58,-1.26,0.50,-7.81,17.56,0.56,29.69,8.00,23.75,-5.09,0.44,8.52,6.06,14.94,-13.13,24.50,4.50,-34.06,-8.74,-1.41,0.56,-7.31,16.94,-0.19,29.69,8.00,23.75,-9.63,-0.29,0.62,16.87,68.44,3.37,38.06,3.87,16.06,walk
36.77,-9.13,-1.57,0.79,1.12,14.56,-0.44,28.06,7.56,23.75,-4.83,0.35,8.81,7.31,29.44,-16.75,24.56,3.75,-32.75,-9.52,-1.31,0.88,8.19,12.19,-0.81,28.06,7.56,23.75,-9.68,-0.66,1.44,47.00,65.31,0.62,35.69,3.56,18.56,walk
36.81,-10.11,-0.53,0.98,23.12,4.69,2.62,28.06,7.56,23.75,-5.13,2.03,8.83,8.56,55.50,-24.25,25.00,4.19,-32.88,-10.24,-0.32,1.13,24.19,2.69,5.06,28.06,7.56,23.06,-10.94,0.62,1.96,80.94,56.81,-8.75,33.88,2.75,20.75,walk
36.84,-10.46,-0.74,0.81,26.31,0.81,6.87,28.06,7.56,23.06,-4.56,1.21,9.52,-23.19,91.25,-42.81,25.00,4.19,-32.88,-10.63,-0.81,0.63,27.56,-1.31,5.06,28.06,7.56,23.06,-10.77,0.00,3.42,88.37,39.56,-12.94,33.88,2.75,20.75,walk
36.87,-11.07,-0.15,1.53,30.69,-14.94,-0.69,26.06,7.19,23.37,-4.74,0.62,9.57,-61.63,132.00,-65.81,26.06,4.25,-31.25,-11.37,-0.07,1.81,34.13,-18.94,-0.56,26.06,7.19,23.37,-11.49,-0.91,6.24,94.94,22.87,-16.62,33.00,4.25,21.56,walk
36.90,-11.66,-0.66,2.60,31.19,-23.12,9.88,26.06,7.19,23.37,-3.47,2.88,10.68,-97.37,190.81,-104.75,26.06,4.25,-31.25,-11.66,-0.87,2.51,31.87,-20.44,16.62,26.06,7.19,23.37,-12.36,-0.96,9.15,85.56,8.63,-22.69,33.00,4.25,21.56,walk
36.93,-11.47,-1.11,0.87,54.19,-10.94,24.31,27.50,7.56,23.87,-6.06,-0.15,14.78,-132.37,323.69,-178.56,28.69,6.06,-29.06,-11.22,-1.19,-1.39,65.31,-3.56,24.81,27.50,7.56,23.87,-15.75,-0.50,4.22,48.44,-91.87,-24.31,30.00,5.87,23.37,walk
36.96,-11.06,-2.11,-4.43,59.38,5.37,25.06,27.50,7.56,23.87,-14.90,0.78,20.99,-71.12,551.25,-173.00,32.06,10.19,-22.69,-10.75,-2.56,-6.42,41.69,1.75,25.06,27.19,7.56,22.69,-16.04,6.11,-4.48,101.19,-161.44,-16.06,28.87,7.69,22.50,walk
37.00,-10.40,-2.49,-5.85,7.12,-7.19,19.69,27.19,7.56,22.69,-10.64,5.79,13.59,-93.00,575.00,-188.19,32.06,10.19,-22.69,-11.40,-2.94,-2.73,4.12,-16.19,11.50,27.19,7.56,22.69,-17.97,4.19,-2.94,30.00,-175.50,25.87,28.87,7.69,22.50,walk
37.03,-11.70,-2.74,-1.89,4.06,-17.06,7.69,27.25,7.19,23.06,-24.19,22.10,30.52,44.19,38.50,43.31,35.00,14.56,-9.25,-11.74,-2.26,-1.19,-1.37,-13.44,1.50,27.25,7.19,23.06,-15.29,-1.59,-3.76,-112.75,-150.25,39.81,30.37,9.56,19.87,walk
37.06,-10.70,0.14,0.30,9.44,-12.19,-4.37,27.25,7.19,23.06,3.42,-1.27,5.25,-88.56,-298.19,181.94,31.50,14.38,2.56,-10.47,0.39,0.21,16.56,-10.56,-8.00,26.56,6.87,23.06,-12.57,-1.71,-1.68,-82.06,-136.56,53.69,32.88,8.19,18.19,walk
37.09,-8.10,0.25,-0.46,23.12,-13.31,-13.81,26.56,6.87,23.06,-3.83,-0.88,9.51,81.69,-246.87,155.50,31.50,14.38,2.56,-7.09,0.03,-0.50,21.19,-12.25,-14.06,26.56,6.87,23.06,-7.78,-2.85,-1.75,-43.63,-128.62,53.88,32.88,8.19,18.19,walk
37.12,-6.13,-0.62,-0.21,10.25,-3.44,-10.38,27.06,6.50,21.75,-5.97,0.80,9.01,88.94,-359.87,86.06,26.56,6.37,6.87,-6.25,-0.82,0.01,4.19,-1.50,-8.38,27.06,6.50,21.75,-7.51,-2.64,-2.55,-39.44,-112.75,33.06,35.00,3.75,17.00,walk
37.16,-6.21,-1.16,0.29,-22.06,-1.62,-7.06,27.06,6.50,21.75,-6.51,-1.86,8.87,115.81,-365.06,104.69,30.56,3.87,12.25,-6.28,-1.07,0.23,-31.50,0.44,-6.50,27.56,7.19,22.50,-5.81,0.17,-3.94,-35.94,-108.50,24.06,37.50,1.87,14.19,walk
37.19,-6.89,-1.01,0.17,-38.88,4.50,-1.37,27.56,7.19,22.50,-10.41,-3.63,11.64,136.12,-340.69,103.94,30.56,3.87,12.25,-7.52,-1.29,-0.04,-37.88,4.69,1.69,27.56,7.19,22.50,-4.76,-0.30,-4.07,-67.87,-105.37,-0.50,37.50,1.87,14.19,walk
37.22,-8.17,-2.27,-0.02,-33.94,5.00,4.69,26.06,6.50,22.87,-10.90,-2.25,12.17,142.62,-325.75,60.13,41.25,2.37,9.50,-8.40,-2.60,0.00,-29.75,4.50,4.56,26.06,6.50,22.87,-4.44,-2.37,-1.94,-77.94,-49.63,3.12,39.75,0.37,11.25,walk
37.26,-8.83,-2.76,0.56,-23.12,-0.44,5.19,26.06,6.50,22.87,-12.51,0.15,11.22,129.69,-259.31,67.62,52.00,-1.75,0.69,-8.97,-2.67,0.82,-21.75,-3.25,5.87,27.87,6.00,23.56,-5.86,-0.22,-0.76,32.25,-1.44,8.56,40.69,-0.69,9.25,walk
37.29,-9.07,-2.34,1.39,-21.69,-10.69,7.69,27.87,6.00,23.56,-21.67,-3.46,13.67,112.25,-161.12,110.75,52.00,-1.75,0.69,-9.11,-1.53,2.18,-28.31,-9.13,9.13,27.87,6.00,23.56,-9.89,3.37,6.11,85.37,35.44,7.37,40.69,-0.69,9.25,walk
37.32,-10.05,-1.15,2.30,-33.69,0.69,8.56,26.75,4.87,23.19,-26.87,-2.95,5.60,58.63,-196.62,135.44,55.88,-6.69,-8.69,-10.36,-1.28,2.13,-34.81,3.06,7.00,26.75,4.87,23.19,-13.35,3.74,17.10,-73.25,46.88,35.69,40.88,-0.56,9.69,walk
37.36,-10.85,-2.51,1.30,-34.75,2.00,3.44,26.75,4.87,23.19,-18.16,-18.10,-18.97,-32.25,-109.44,122.94,59.56,-10.19,-21.19,-11.08,-3.65,1.14,-27.06,0.25,2.56,27.19,3.37,24.06,-13.10,-3.81,10.72,-184.25,-14.31,-12.56,41.00,-1.25,11.75,walk
37.39,-11.44,-3.99,1.43,-3.75,-2.12,-0.56,27.19,3.37,24.06,-23.21,-2.02,3.53,-57.88,208.37,26.69,59.56,-10.19,-21.19,-13.06,-3.35,3.24,8.25,-14.31,-6.19,27.19,3.37,24.06,-2.58,-5.76,1.15,-67.25,-37.50,17.31,41.00,-1.25,11.75,walk
37.42,-11.76,-0.73,4.52,13.19,-47.56,-18.94,27.19,2.00,25.56,3.48,-8.70,17.65,-94.94,169.37,-31.75,58.06,-12.88,-31.00,-11.05,-0.26,4.44,1.12,-52.13,-22.00,27.19,2.00,25.56,-16.42,-3.18,0.86,-73.37,130.69,3.87,42.56,-3.37,11.00,walk
37.46,-10.97,-1.34,0.51,-43.06,-1.31,-19.37,27.19,2.00,25.56,-9.00,4.59,8.71,-141.12,208.19,-82.19,64.69,-12.19,-21.69,-10.97,-1.34,0.51,-41.50,14.94,-19.81,27.69,3.50,24.06,-19.12,-7.11,9.74,-35.19,-4.75,24.75,44.06,-4.37,11.88,walk
37.49,-11.32,-2.66,-3.02,-29.31,25.87,-20.06,27.69,3.50,24.06,-7.01,7.26,7.72,-85.62,74.62,-38.88,64.69,-12.19,-21.69,-9.61,-1.25,-7.40,13.13,20.87,-19.31,27.69,3.50,24.06,2.97,2.98,-11.81,121.06,-13.00,34.69,44.06,-4.37,11.88,walk
37.52,-9.98,0.67,-6.51,27.19,-7.06,-15.81,28.69,2.69,24.75,-5.88,1.16,8.68,-34.50,32.13,-24.44,70.56,-7.50,-11.19,-11.44,2.65,-3.31,15.44,-17.56,-9.88,28.69,2.69,24.75,-13.06,5.57,-4.31,14.69,94.25,0.44,44.00,-6.50,12.69,walk
37.56,-10.54,1.46,2.26,-33.31,-20.12,-6.69,28.69,2.69,24.75,-5.16,0.14,8.84,-16.69,13.50,-14.81,72.50,-4.87,-10.50,-10.12,0.54,2.43,-48.44,-6.62,-7.56,28.19,3.19,24.87,-9.56,-0.29,-0.11,-18.00,94.94,16.87,44.38,-6.37,15.19,walk
37.60,-9.58,-1.44,0.97,-48.44,6.69,-2.56,28.19,3.19,24.87,-5.09,0.00,8.85,-7.12,23.69,-12.00,72.50,-4.87,-10.50,-9.16,-2.84,-0.96,-15.00,4.44,7.50,28.19,3.19,24.87,-9.48,0.48,-0.57,3.25,101.87,4.56,44.38,-6.37,15.19,walk
37.63,-8.86,-3.43,-2.05,-3.81,3.25,12.25,29.19,2.75,23.69,-5.43,0.35,8.52,1.06,21.75,-9.19,71.19,-3.87,-9.75,-8.15,-3.18,-1.99,1.56,0.00,15.75,29.19,2.75,23.69,-9.28,-0.61,0.14,19.12,107.12,6.06,44.38,-5.87,17.50,walk
37.66,-7.37,-2.23,-1.06,-0.62,-6.87,16.50,29.19,2.75,23.69,-5.60,0.39,8.17,6.44,19.44,-8.25,71.87,-3.06,-8.06,-7.03,-1.72,-0.49,0.31,-9.69,13.56,28.75,1.37,24.87,-8.82,-0.70,0.21,72.75,98.87,-0.25,41.50,-5.75,20.69,walk
37.69,-6.23,-0.90,1.05,3.75,-6.19,2.00,28.75,1.37,24.87,-5.34,0.93,7.97,5.50,18.44,-7.44,71.87,-3.06,-8.06,-5.89,-0.78,1.39,5.62,-5.00,0.50,28.75,1.37,24.87,-9.51,1.04,0.90,64.12,89.31,-11.63,41.50,-5.75,20.69,walk
37.72,-6.20,-0.58,1.01,5.81,6.44,1.69,30.56,2.50,24.87,-5.76,0.58,8.00,4.12,26.25,-9.94,71.75,-1.87,-5.06,-6.38,-0.41,0.73,4.81,11.44,2.44,30.56,2.50,24.87,-8.86,-0.36,1.47,63.50,82.50,-1.19,40.38,-5.37,25.69,walk
37.76,-7.56,0.06,0.17,8.31,18.19,0.50,30.56,2.50,24.87,-5.66,0.24,8.07,6.87,7.50,-11.31,72.75,-1.87,-5.50,-7.95,0.17,0.19,9.44,22.75,-2.75,29.37,2.06,23.75,-8.94,0.82,0.87,39.25,79.75,-1.56,39.19,-3.19,28.37,walk
37.79,-8.75,-0.24,0.97,11.88,19.69,-2.87,29.37,2.06,23.75,-5.17,0.39,8.41,8.38,15.69,-12.88,72.75,-1.87,-5.50,-8.81,-0.84,1.31,12.94,17.12,-2.06,29.37,2.06,23.75,-9.70,-0.26,0.26,22.31,63.00,-1.06,39.19,-3.19,28.37,walk
37.82,-8.83,-1.19,1.46,12.44,14.25,-2.19,29.37,2.06,25.00,-5.41,0.51,8.51,14.44,30.50,-14.69,73.19,-1.37,-4.87,-9.08,-1.19,1.59,12.50,11.25,-3.31,29.37,2.06,25.00,-9.46,-0.62,0.36,49.19,68.87,-5.19,38.25,-2.06,31.50,walk
37.86,-9.50,-0.98,1.70,11.63,10.75,-4.81,29.37,2.06,25.00,-5.17,1.36,8.78,20.25,36.88,-19.25,74.19,-0.25,-4.50,-9.76,-1.04,1.63,14.44,12.75,-3.62,29.37,2.06,25.00,-10.43,0.11,1.13,76.75,64.31,-8.44,37.06,-1.37,31.75,walk
37.89,-10.44,-1.48,0.94,23.75,12.88,1.81,29.37,2.50,26.56,-5.37,0.93,9.06,-2.06,75.62,-30.87,74.19,-0.25,-4.50,-10.47,-1.37,0.76,27.69,9.31,3.44,29.37,2.50,26.56,-11.06,0.42,3.40,79.94,50.69,-10.81,37.06,-1.37,31.75,walk
37.92,-11.25,-0.91,1.16,28.00,4.75,2.69,28.25,3.56,27.00,-5.23,1.65,8.88,-26.06,121.62,-41.75,73.37,0.50,-2.50,-11.53,-1.01,1.49,24.12,0.62,3.56,28.25,3.56,27.00,-11.05,-1.28,4.63,91.81,28.94,-11.69,37.50,0.75,35.19,walk
37.95,-12.22,-1.72,2.14,20.06,-6.69,6.62,28.25,3.56,27.00,-3.86,2.79,10.15,-75.00,178.06,-82.06,73.37,0.50,-2.50,-11.88,-2.74,3.24,25.50,-21.94,12.06,28.25,3.56,27.00,-12.30,-1.85,8.76,67.19,-0.56,-14.25,37.50,0.75,35.19,walk
37.98,-11.66,-2.17,3.37,38.69,-21.87,11.81,28.37,3.56,26.25,-6.87,0.25,12.38,-104.37,292.00,-160.00,74.87,3.06,3.69,-11.74,0.68,1.05,66.87,-12.06,13.25,28.37,3.56,26.25,-14.29,1.89,3.86,132.44,-33.06,-40.06,35.69,2.87,35.25,walk
38.01,-11.55,1.76,-0.05,60.69,4.94,17.37,28.37,3.56,26.25,-10.73,-5.98,15.50,-57.13,449.87,-159.56,73.00,7.37,15.50,-11.38,2.20,-1.76,42.38,12.75,17.75,28.75,3.56,26.25,-14.76,5.71,0.99,70.06,-133.94,-31.06,36.75,6.50,33.25,walk
38.04,-9.82,0.01,-7.10,18.56,20.19,17.25,28.75,3.56,26.25,-17.01,9.48,21.24,42.00,555.75,-152.94,73.00,7.37,15.50,-10.79,-4.23,-6.65,-15.31,16.19,12.00,28.75,3.56,26.25,-18.52,2.95,-3.08,8.25,-191.19,36.94,36.75,6.50,33.25,walk
38.08,-11.24,-5.68,-3.57,-11.44,-4.25,10.06,29.50,4.00,25.69,-39.26,2.12,39.03,-107.62,321.69,-196.25,66.00,17.00,37.00,-10.93,-3.07,-0.01,11.56,-15.19,7.87,29.50,4.00,25.69,-14.89,-0.36,-2.99,-111.00,-161.06,43.75,40.00,10.25,28.87,walk
38.11,-10.67,-1.53,0.97,22.00,-11.69,6.25,29.50,4.00,25.69,1.70,10.20,6.68,8.00,-320.44,113.06,48.75,26.19,52.75,-10.53,-0.21,1.53,27.75,-8.13,2.62,28.87,3.19,25.25,-13.39,-1.10,-2.04,-105.44,-145.06,49.94,44.38,9.88,19.37,walk
38.14,-9.89,2.00,1.12,27.75,-7.56,-10.56,28.87,3.19,25.25,0.77,-0.94,4.97,-71.25,-249.00,151.19,48.75,26.19,52.75,-8.46,2.16,-0.55,19.50,-8.06,-13.25,28.87,3.19,25.25,-9.43,-1.01,-1.65,-63.56,-140.75,54.06,44.38,9.88,19.37,walk
38.17,-6.73,0.84,-1.34,-1.12,-0.88,-15.00,30.37,4.25,25.25,-6.13,3.64,9.21,51.63,-302.25,130.31,61.88,24.00,34.56,-6.47,0.23,-0.96,-11.44,0.37,-14.06,30.37,4.25,25.25,-7.30,-2.21,-2.36,-43.31,-123.37,53.25,45.50,6.50,14.75,walk
38.21,-6.18,-1.33,0.67,-22.44,3.44,-10.81,30.37,4.25,25.25,-7.29,-0.54,7.89,33.44,-367.06,115.25,71.25,14.00,8.06,-6.36,-1.51,1.00,-22.31,4.19,-8.69,29.19,5.75,25.25,-5.74,0.48,-4.50,-53.50,-110.00,41.00,44.56,4.69,10.50,walk
38.24,-6.84,-1.58,0.98,-21.44,4.56,-6.00,29.19,5.75,25.25,-7.03,-0.56,8.14,89.56,-372.00,116.12,71.25,14.00,8.06,-7.12,-1.58,0.86,-21.94,5.31,-0.56,29.19,5.75,25.25,-4.54,-0.03,-4.94,-124.94,-109.56,0.62,44.56,4.69,10.50,walk
38.27,-7.33,-1.71,0.36,-23.87,9.50,0.44,29.19,5.75,25.25,-10.78,-2.31,11.82,109.44,-334.81,97.12,58.00,2.50,-22.75,-7.74,-2.11,0.07,-24.06,15.94,1.06,28.87,4.25,24.19,-4.52,-1.93,-2.74,-96.50,-69.87,-14.63,44.25,2.50,5.37,walk
38.31,-8.59,-2.99,0.33,-19.75,11.88,2.12,28.87,4.25,24.19,-14.66,0.38,13.11,135.69,-300.44,23.19,27.37,-3.56,-23.56,-9.02,-3.06,0.39,-15.69,9.56,3.37,28.87,4.25,24.19,-5.01,-2.14,-1.80,-34.81,-10.75,6.56,44.25,2.50,5.37,walk
38.34,-9.80,-2.56,1.06,-14.94,3.50,7.62,28.87,5.50,24.87,-20.03,-2.59,12.30,116.87,-239.75,39.75,27.37,-3.56,-23.56,-9.88,-1.85,1.71,-19.00,-4.25,10.38,28.87,5.50,24.87,-7.50,-0.30,1.50,74.87,36.81,7.19,43.69,2.87,4.06,walk
38.37,-9.92,-1.51,2.03,-20.56,-9.44,9.50,28.06,5.06,26.50,-25.45,-4.34,8.20,120.50,-204.75,97.50,21.37,5.75,-18.75,-10.00,-1.01,2.09,-22.44,-10.31,8.25,28.06,5.06,26.50,-10.97,1.90,10.05,66.37,49.00,21.12,43.25,3.37,2.69,walk
38.41,-10.51,-1.81,1.42,-28.50,-11.25,5.06,28.06,5.06,26.50,-37.36,-17.46,-18.30,-15.06,-164.31,137.69,18.00,4.50,-27.87,-10.66,-2.39,1.19,-32.50,-9.88,4.69,28.06,5.06,26.50,-13.15,1.05,17.07,-164.75,-7.81,14.50,43.00,3.37,3.75,walk
38.44,-10.74,-3.49,1.02,-27.31,-8.44,3.69,27.37,4.25,27.25,-15.74,-5.26,-8.04,-56.44,144.50,54.50,18.00,4.50,-27.87,-12.18,-3.60,2.69,-3.94,-16.62,-2.00,27.37,4.25,27.25,-6.34,-4.95,4.97,-94.25,-13.38,-1.69,43.00,3.37,3.75,walk
38.47,-12.83,-2.84,3.39,5.12,-27.31,-8.75,27.37,4.25,26.50,2.92,-3.45,18.18,-90.81,228.31,-12.44,14.25,3.06,-30.37,-11.88,-0.19,4.41,-1.06,-54.06,-22.00,27.37,4.25,26.50,-3.59,-1.13,-5.32,-39.19,23.94,49.56,42.25,2.75,3.69,walk
38.50,-10.48,0.37,3.84,-32.25,-42.69,-22.87,27.37,4.25,26.50,-25.37,9.57,17.24,-10.69,290.75,-56.31,14.25,3.06,-30.37,-10.44,-0.62,1.68,-47.13,-21.56,-20.81,27.37,4.25,26.50,-33.88,-3.11,15.29,-96.00,157.31,-30.44,42.25,2.75,3.69,walk
38.53,-10.74,-1.42,0.00,-57.13,0.44,-20.50,28.50,5.06,24.87,-8.10,-17.83,16.97,-144.81,64.44,-56.50,17.37,7.25,-23.69,-10.74,-2.17,-6.38,-43.50,35.13,-21.94,28.50,5.06,24.87,1.65,-3.46,-21.77,-138.37,-132.44,86.06,40.50,2.69,5.25,walk
38.56,-10.07,-1.70,-7.59,5.19,14.44,-19.44,28.50,5.06,24.87,-6.96,-3.92,9.69,-36.13,42.44,-27.12,19.87,10.00,-18.56,-10.06,0.08,-6.91,21.37,-0.88,-16.62,29.19,4.69,26.87,-13.67,9.64,-3.16,158.25,115.37,10.69,39.00,2.25,7.87,walk
38.59,-11.38,1.92,-3.50,22.25,-25.62,-10.00,29.19,4.69,26.87,-5.27,0.22,8.99,-13.50,13.19,-14.88,19.87,10.00,-18.56,-11.84,1.92,0.12,13.75,-27.56,-9.00,29.19,4.69,26.87,-10.37,2.89,-1.53,-9.50,86.56,8.81,39.00,2.25,7.87,walk
38.63,-10.79,-0.43,3.22,-15.63,-2.44,-6.06,26.87,5.06,25.56,-4.88,-0.03,8.56,-8.44,10.88,-8.56,19.06,12.00,-17.75,-10.29,-1.26,2.72,-30.81,9.38,-3.75,26.87,5.06,25.56,-9.47,0.36,-0.56,-11.06,107.25,-3.25,39.50,1.75,9.25,walk
38.66,-9.24,-2.59,-1.01,-29.56,14.56,3.50,26.87,5.06,25.56,-5.36,0.76,8.51,-2.56,15.06,-8.13,20.25,12.25,-16.06,-9.14,-2.74,-1.77,-18.50,13.25,8.31,26.56,6.25,24.87,-9.63,0.46,-0.43,10.19,110.94,3.37,38.38,2.87,12.00,walk
38.69,-8.03,-2.56,-1.57,-0.25,7.12,15.06,26.56,6.25,24.87,-5.39,0.59,8.21,1.19,11.69,-7.81,20.25,12.25,-16.06,-7.47,-2.36,-1.08,10.06,1.94,14.38,26.56,6.25,24.87,-8.97,-0.29,0.26,51.25,102.62,7.37,38.38,2.87,12.00,walk
38.72,-5.88,-1.21,0.78,14.69,1.44,8.81,27.06,5.56,26.75,-5.32,0.56,8.24,0.25,14.69,-7.50,19.56,12.75,-16.50,-5.73,-1.05,0.90,17.12,3.00,4.94,27.06,5.56,26.75,-9.04,-0.23,0.86,75.56,96.75,-4.25,34.69,2.56,16.00,walk
38.76,-5.23,-0.84,0.97,17.75,10.56,0.75,27.06,5.56,26.75,-5.58,0.73,8.00,3.69,18.37,-9.13,19.19,12.06,-16.25,-5.29,-0.76,0.86,15.38,15.94,1.31,26.00,6.69,26.00,-9.48,1.70,2.08,76.56,81.25,-8.81,34.69,2.56,16.00,walk
38.79,-5.98,-0.49,0.50,13.00,26.87,3.06,26.00,6.69,26.00,-5.34,0.67,8.20,5.62,15.25,-10.19,19.19,12.06,-16.25,-7.46,-0.12,-0.02,20.87,31.94,2.25,26.00,6.69,26.00,-9.26,0.49,1.47,53.50,84.50,3.56,33.69,4.00,20.00,walk
38.83,-8.46,-0.18,0.04,20.25,32.19,-0.44,25.69,7.06,26.25,-5.55,0.29,8.21,10.31,8.00,-13.00,20.69,12.75,-16.56,-8.64,-0.29,0.32,18.81,30.56,-1.94,25.69,7.06,26.25,-9.72,0.17,0.19,32.44,71.19,-0.62,32.56,5.25,21.19,walk
38.86,-9.09,-0.64,1.02,11.94,19.19,-5.50,25.69,7.06,26.25,-5.51,0.68,8.19,11.31,4.56,-16.25,19.69,12.75,-15.88,-9.45,-0.86,1.54,11.75,18.12,-6.31,24.87,8.50,27.06,-9.87,-0.09,0.54,46.63,65.19,-3.56,29.69,6.06,23.56,walk
38.89,-9.66,-0.93,1.58,20.50,17.62,-7.00,24.87,8.50,27.06,-4.89,0.34,9.03,19.25,21.44,-19.19,19.69,12.75,-15.88,-10.18,-0.71,1.47,23.19,16.06,-6.00,24.87,8.50,27.06,-10.78,0.71,2.50,70.81,73.75,-8.50,29.69,6.06,23.56,walk
38.92,-11.01,-0.72,1.17,19.50,15.00,-0.25,24.25,8.50,28.25,-4.80,1.53,9.20,28.87,44.63,-22.62,20.00,13.56,-15.50,-11.45,-0.80,0.55,17.12,14.00,3.37,24.25,8.50,28.25,-11.03,-0.47,2.87,79.81,59.06,-10.69,28.19,7.87,24.19,walk
38.96,-11.35,-0.64,0.61,15.06,0.06,3.87,24.25,8.50,28.25,-4.92,1.04,9.33,-14.88,117.37,-42.88,19.25,12.75,-16.25,-11.41,-0.47,1.26,15.56,-0.37,2.50,24.00,10.00,29.87,-11.66,0.43,3.85,86.50,39.63,-15.25,28.19,7.87,24.19,walk
38.99,-12.30,-0.73,2.05,13.31,-2.19,3.56,24.00,10.00,29.87,-4.43,1.84,9.47,-58.75,169.00,-65.81,19.25,12.75,-16.25,-13.52,-1.00,2.83,10.13,-9.69,15.81,24.00,10.00,29.87,-12.59,0.74,6.13,77.06,21.06,-22.19,25.25,10.75,24.25,walk
39.02,-13.42,-0.69,2.14,12.25,-9.75,23.31,22.69,10.38,30.75,-3.60,4.52,12.24,-106.62,267.94,-140.44,21.06,14.25,-15.06,-12.44,-0.05,-1.66,17.19,-2.94,30.19,22.69,10.38,30.75,-14.92,1.30,9.49,56.00,-13.31,-28.25,24.19,14.00,23.69,walk
39.06,-10.35,-0.06,-4.33,2.19,-0.88,25.62,22.69,10.38,30.75,-13.53,-7.94,15.69,-71.62,502.81,-179.37,21.87,17.25,-6.19,-9.26,-0.36,-5.47,-12.44,-2.00,21.69,22.69,10.38,30.75,-14.17,2.46,0.00,-17.12,-120.94,-22.25,24.19,14.00,23.69,walk
39.09,-8.61,-2.05,-5.45,-23.62,0.56,16.56,22.87,10.38,30.00,-16.74,7.28,22.22,13.38,582.19,-191.00,21.87,17.25,-6.19,-9.37,-4.28,-3.08,1.87,-5.50,15.19,22.87,10.38,30.00,-18.20,2.69,-2.67,-40.31,-201.87,33.25,22.75,16.69,22.69,walk
39.12,-10.38,-4.16,-1.22,14.69,2.31,14.69,24.06,10.25,29.69,-39.26,7.71,39.28,-102.50,381.94,-217.56,21.25,21.00,2.00,-11.13,-3.42,-0.57,18.06,5.94,12.00,24.06,10.25,29.69,-15.16,-0.31,-2.74,-151.00,-151.81,34.44,22.37,19.69,18.50,walk
39.15,-11.47,-0.33,-0.09,26.69,-3.31,4.25,24.06,10.25,29.69,2.75,15.58,9.72,16.06,-313.44,119.37,21.25,21.00,2.00,-11.15,0.36,-0.16,24.75,-10.00,0.00,24.06,10.25,29.69,-13.62,-1.84,-2.22,-65.56,-148.94,49.63,22.37,19.69,18.50,walk
39.18,-10.13,1.11,-1.13,19.12,-8.31,-9.19,22.87,10.56,30.87,2.04,-1.75,6.65,-68.87,-230.75,160.69,16.56,24.69,9.06,-9.49,0.92,-1.31,17.25,-11.75,-13.00,22.87,10.56,30.87,-9.04,-1.71,-2.27,-12.38,-161.12,49.69,23.87,19.06,16.69,walk
39.21,-6.75,-0.08,-0.65,14.50,-17.94,-15.63,22.87,10.56,30.87,-5.88,2.98,10.81,83.75,-297.44,158.44,23.56,25.37,3.56,-6.38,-0.43,-0.41,11.44,-17.31,-14.75,23.19,10.25,30.50,-7.17,-1.53,-2.79,9.94,-149.00,42.50,23.87,19.06,16.69,walk
39.24,-6.17,-1.00,0.46,4.87,-13.63,-10.81,23.19,10.25,30.50,-6.89,-2.35,8.98,42.63,-390.00,128.50,23.56,25.37,3.56,-6.21,-1.03,0.70,2.19,-10.50,-9.56,23.19,10.25,30.50,-6.08,-0.13,-4.21,-4.94,-99.12,38.38,27.19,16.50,17.00,walk
39.28,-6.50,-0.89,0.87,-9.75,-5.75,-6.87,22.00,11.69,31.25,-8.16,-1.95,9.51,112.31,-390.37,109.94,23.00,22.87,-10.56,-6.80,-0.93,0.76,-17.06,-3.44,-5.19,22.00,11.69,31.25,-3.43,0.33,-5.83,-78.37,-90.50,7.00,29.37,15.75,15.38,walk
39.31,-7.46,-1.32,0.47,-27.00,0.94,-3.44,22.00,11.69,31.25,-12.65,-1.10,12.59,119.37,-357.87,95.37,5.19,23.25,-10.50,-8.23,-2.22,0.28,-27.25,3.12,-2.31,23.19,12.00,31.69,-4.08,-1.63,-5.15,-171.75,-60.56,-21.62,29.37,15.75,15.38,walk
39.34,-8.54,-2.49,0.38,-22.87,0.13,1.56,23.19,12.00,31.69,-16.12,-0.71,12.70,121.81,-311.81,66.00,5.19,23.25,-10.50,-8.96,-2.77,1.22,-21.75,-4.06,4.87,23.19,12.00,31.69,-5.19,-1.71,-0.67,-18.87,7.81,2.37,30.00,15.06,13.69,walk
39.37,-8.97,-2.56,1.56,-20.12,-11.06,9.13,21.56,11.19,30.87,-18.70,-3.16,10.84,113.12,-240.50,63.50,8.88,26.50,1.56,-9.25,-2.16,1.59,-20.50,-12.19,9.13,21.56,11.19,30.87,-9.57,-0.67,5.30,102.50,30.75,-1.37,32.00,13.88,14.56,walk
39.41,-9.40,-1.70,1.84,-22.12,-13.88,6.56,21.56,11.19,30.87,-28.15,-3.66,4.57,123.50,-190.94,113.75,16.00,22.75,-0.25,-9.49,-1.47,1.92,-22.12,-13.88,6.56,22.25,11.56,33.25,-12.19,2.85,15.84,21.50,28.87,29.06,32.00,13.88,14.56,walk
39.44,-9.93,-1.74,1.56,-23.87,-7.25,5.00,22.25,11.56,33.25,-31.76,-15.96,-19.87,9.50,-155.12,126.37,16.00,22.75,-0.25,-10.92,-3.33,1.41,-23.94,-2.69,5.19,22.25,11.56,33.25,-13.81,-2.85,9.16,-116.75,14.50,2.75,30.75,14.69,15.00,walk
39.47,-12.38,-4.17,2.06,-9.88,-6.50,2.81,22.19,10.38,31.25,-18.76,-1.83,-4.57,-93.12,196.87,14.94,29.50,19.50,-1.37,-13.65,-3.55,2.90,4.87,-15.94,-2.75,22.19,10.38,31.25,-5.13,-3.04,2.86,-64.56,-40.94,27.50,30.00,15.06,15.19,walk
39.51,-13.03,-1.98,3.85,18.37,-47.56,-19.56,22.19,10.38,31.25,-1.50,-7.51,22.55,-120.12,256.69,-34.31,38.50,15.19,-0.25,-12.18,-1.21,3.99,14.00,-57.75,-26.12,22.19,10.38,31.25,-4.74,3.83,-2.29,-134.81,76.37,12.06,30.00,15.06,15.19,walk
39.54,-10.97,-0.41,1.98,-11.19,-38.31,-26.69,22.19,10.38,32.88,5.01,6.02,7.84,-115.31,75.94,-65.56,38.50,15.19,-0.25,-11.50,-0.50,0.47,-29.69,4.06,-26.56,22.19,10.38,32.88,-22.51,-7.68,11.21,-63.81,-2.06,15.06,31.00,12.50,18.06,walk
39.57,-12.31,-1.21,-4.90,-7.69,17.69,-22.25,22.50,11.88,30.50,-6.54,6.03,8.35,-41.19,49.50,-33.88,40.25,15.88,14.50,-10.78,-0.28,-6.88,10.38,-0.50,-19.06,22.50,11.88,30.50,3.95,-1.29,-15.51,240.31,84.81,33.00,28.75,9.38,23.06,walk
39.60,-10.70,1.70,-3.76,15.44,-36.50,-8.13,22.50,11.88,30.50,-5.33,3.03,8.05,-7.56,23.44,-17.06,37.56,15.25,19.06,-10.59,2.04,-1.77,-2.81,-43.69,-2.87,22.50,11.88,30.50,-16.47,10.05,-6.78,33.06,94.62,-2.81,28.75,9.38,23.06,walk
39.64,-9.41,1.04,3.19,-34.00,-33.63,-1.00,21.69,11.56,31.19,-5.21,1.17,8.45,-5.31,18.69,-12.56,37.56,15.25,19.06,-9.30,0.43,3.21,-36.75,-13.56,-3.00,21.69,11.56,31.19,-8.97,0.53,-0.77,-12.06,84.62,15.31,31.00,8.88,22.56,walk
39.67,-9.12,-1.78,0.14,-32.38,17.50,-3.44,21.69,11.56,31.19,-4.96,0.21,8.42,-12.00,14.88,-10.44,36.56,16.37,18.87,-9.37,-2.29,-1.35,-23.37,24.44,0.44,23.56,11.25,30.75,-9.22,1.11,-0.29,-3.31,110.62,-0.44,28.69,9.25,24.19,walk
39.70,-9.71,-2.56,-2.48,-14.31,13.13,13.88,23.56,11.25,30.75,-5.27,0.68,8.32,-7.44,20.00,-9.19,36.56,16.37,18.87,-9.24,-2.28,-1.92,-14.94,1.31,19.75,23.56,11.25,30.75,-9.10,-0.53,-0.03,4.56,100.44,6.37,28.69,9.25,24.19,walk
39.73,-6.88,-0.67,1.46,-13.13,-15.81,16.06,23.06,10.88,30.69,-5.48,0.42,8.11,0.81,18.69,-8.38,36.06,16.69,20.75,-6.24,-0.42,1.91,-12.00,-14.50,9.31,23.06,10.88,30.69,-9.07,-0.60,0.02,77.00,107.00,-2.31,27.69,9.25,28.06,walk
39.77,-5.09,-0.75,1.64,-7.37,0.19,-1.06,23.06,10.88,30.69,-5.31,0.69,8.19,5.62,20.00,-7.37,36.25,18.37,21.00,-5.03,-0.91,1.39,-5.12,9.81,-2.37,22.75,9.75,31.06,-9.48,0.79,0.32,64.87,98.94,-9.88,27.69,9.25,28.06,walk
39.79,-5.54,-1.13,0.59,-0.75,24.69,2.37,22.75,9.75,31.06,-5.48,0.72,8.12,7.25,20.56,-8.63,36.25,18.37,21.00,-6.64,-0.91,0.22,2.00,28.31,5.25,22.75,9.75,31.06,-8.94,-0.39,1.81,59.56,79.56,-5.81,23.69,9.00,29.56,walk
39.83,-7.70,-0.49,0.26,3.12,27.12,5.06,23.50,9.38,29.87,-5.50,0.65,8.02,12.63,10.19,-8.38,35.19,18.06,22.50,-8.14,-0.19,0.64,2.37,24.87,2.87,23.50,9.38,29.87,-8.99,0.11,1.03,39.31,81.19,-2.19,22.69,10.50,31.19,walk
39.86,-8.29,-0.24,1.20,4.87,22.69,-2.56,23.50,9.38,29.87,-5.41,0.17,8.34,12.00,10.63,-12.13,34.69,17.75,21.56,-8.31,-0.44,1.50,10.19,22.12,-4.50,23.50,9.38,29.87,-9.93,-0.02,1.08,19.37,70.44,-1.00,22.69,10.50,31.19,walk
39.89,-8.55,-0.99,1.51,20.62,16.37,-5.37,22.37,10.19,31.87,-5.49,0.48,8.41,14.44,22.06,-14.88,34.69,17.75,21.56,-9.33,-0.66,1.17,19.19,16.94,-6.12,22.37,10.19,31.87,-9.58,-0.79,0.84,32.25,67.94,-2.31,20.25,12.25,33.19,walk
39.92,-9.92,-0.51,1.43,13.81,18.12,-5.37,21.56,11.25,33.06,-5.55,1.35,8.34,21.12,32.25,-17.69,34.25,19.37,21.56,-10.24,-0.57,1.49,14.31,18.31,-2.62,21.56,11.25,33.06,-10.23,0.14,1.04,88.31,59.06,-9.00,16.37,11.88,32.75,walk
39.96,-10.66,-1.15,1.20,18.81,11.31,1.75,21.56,11.25,33.06,-4.88,1.74,9.46,3.19,73.25,-32.13,33.56,20.19,22.37,-10.79,-1.22,1.14,20.62,7.62,0.62,21.56,11.25,33.06,-10.88,0.48,2.51,85.25,49.56,-12.75,16.37,11.88,32.75,walk
39.99,-10.83,-0.99,2.24,17.50,0.88,-3.75,21.69,10.88,33.88,-4.76,1.59,9.50,-28.50,116.62,-45.50,33.56,20.19,22.37,-11.71,-0.73,2.93,13.19,4.06,-0.44,21.69,10.88,33.88,-11.54,-0.99,3.95,89.44,32.63,-12.75,16.06,13.38,33.19,walk
40.03,-12.16,-1.61,3.72,18.69,-9.44,9.94,22.56,12.00,32.69,-4.39,2.78,9.53,-72.69,171.50,-79.25,32.88,20.06,23.06,-11.96,-2.09,3.72,31.12,-14.88,12.94,22.56,12.00,32.69,-12.58,-1.00,8.33,78.81,16.25,-16.19,14.19,15.19,32.00,walk
40.06,-11.72,-1.13,0.54,60.13,-19.19,12.56,22.56,12.00,32.69,-7.75,0.57,13.81,-121.69,338.81,-187.56,29.06,20.06,26.19,-11.45,-0.50,-0.60,64.00,-17.75,13.38,22.56,12.00,32.69,-13.14,-0.41,8.62,90.06,-48.69,-36.19,14.19,15.19,32.00,walk
40.09,-10.97,1.15,-4.81,43.88,1.87,21.81,21.50,12.38,33.50,-11.62,-7.30,14.57,-47.31,508.19,-171.19,29.06,20.06,26.19,-10.64,1.12,-5.91,-0.56,4.37,22.50,21.50,12.38,33.50,-14.37,6.57,-3.68,51.56,-161.06,-18.94,13.88,18.75,31.25,walk
40.12,-10.11,-0.84,-5.31,-37.06,1.00,16.44,21.75,12.75,31.87,-19.76,8.53,22.20,6.56,587.37,-193.62,19.87,19.00,32.88,-11.09,-3.00,-3.04,-37.75,-10.31,13.88,21.75,12.75,31.87,-17.44,3.73,-2.93,-17.31,-198.44,28.31,13.56,19.87,30.37,walk
40.16,-11.68,-4.63,0.02,-18.12,-23.62,6.00,21.75,12.75,31.87,-25.98,20.32,31.78,51.44,-31.81,-17.56,2.37,20.06,32.50,-11.64,-4.07,0.24,-5.81,-12.00,1.19,21.75,12.75,31.87,-16.44,-1.23,-3.79,-160.06,-145.56,42.44,13.56,19.87,30.37,walk
40.19,-10.64,-0.92,0.94,16.00,-1.81,-4.87,21.50,13.19,32.25,4.39,4.26,5.39,-54.50,-320.81,145.06,2.37,20.06,32.50,-10.13,0.32,0.07,37.50,-4.44,-6.87,21.50,13.19,32.25,-12.72,-1.93,-1.15,-94.62,-136.06,51.81,19.37,19.56,25.37,walk
40.23,-7.87,0.93,-0.28,36.25,-14.13,-9.50,22.19,13.19,31.50,-5.27,0.80,10.18,65.81,-305.94,168.12,3.37,19.25,26.06,-7.09,0.79,0.00,28.12,-13.63,-11.25,22.19,13.19,31.50,-8.22,-1.85,-2.02,-34.38,-138.75,57.69,23.56,14.75,22.75,walk
40.26,-5.97,-0.21,0.56,12.94,-5.31,-13.69,22.19,13.19,31.50,-6.42,-1.24,7.82,45.81,-387.00,130.94,13.50,17.50,21.87,-5.94,-0.51,0.75,6.81,-3.19,-12.94,22.19,13.19,31.50,-7.16,-2.11,-3.05,-39.38,-121.50,46.38,23.56,14.75,22.75,walk
40.29,-6.04,-0.88,0.91,-7.81,4.12,-8.94,22.19,13.88,30.69,-7.26,-2.78,8.51,100.25,-384.87,104.31,13.50,17.50,21.87,-6.44,-0.95,0.61,-16.87,9.06,-3.62,22.19,13.88,30.69,-5.90,-0.27,-4.61,-82.81,-102.12,22.75,25.56,13.38,20.87,walk
40.33,-7.30,-1.39,0.39,-18.37,9.38,1.00,22.56,14.19,31.87,-11.15,-2.37,11.00,155.75,-346.25,46.75,21.25,13.06,5.00,-7.69,-1.73,0.33,-17.50,9.25,2.06,22.56,14.19,31.87,-4.39,-1.79,-3.86,-123.62,-102.25,-1.19,29.87,11.19,18.87,walk
40.36,-8.13,-2.26,0.59,-18.19,6.81,3.19,22.56,14.19,31.87,-12.11,1.76,11.41,161.50,-301.50,26.56,7.87,4.06,4.50,-8.49,-2.51,0.99,-18.06,6.25,4.00,22.56,14.19,31.87,-3.49,-3.38,-1.89,-53.31,-53.50,-4.94,29.87,11.19,18.87,walk
40.39,-8.59,-2.50,1.35,-17.87,4.19,6.56,21.75,13.75,31.87,-12.21,-0.17,9.67,152.75,-213.12,73.06,7.87,4.06,4.50,-8.86,-2.20,1.44,-15.50,-1.44,8.31,21.75,13.75,31.87,-6.44,0.41,-0.48,89.06,9.88,1.50,33.00,10.56,17.00,walk
40.42,-9.19,-1.84,1.57,-14.06,-4.19,8.19,21.75,13.75,31.87,-25.29,-5.25,13.64,150.62,-105.37,142.12,13.38,9.38,17.19,-9.16,-1.54,1.78,-12.81,-8.13,6.87,21.75,13.75,30.69,-10.17,2.64,6.27,135.94,41.00,19.12,32.19,9.88,16.69,walk
40.45,-9.33,-1.48,1.74,-14.13,-5.87,4.75,21.75,13.75,30.69,-31.97,-3.51,0.38,71.00,-167.25,163.94,13.38,9.38,17.19,-9.74,-1.56,1.65,-15.69,-5.12,4.19,21.75,13.75,30.69,-13.05,7.46,18.51,-34.00,27.12,66.81,32.19,9.88,16.69,walk
40.48,-10.73,-2.13,1.81,-17.50,-6.06,3.87,20.69,13.06,31.50,-15.49,-18.51,-19.25,-72.06,-139.81,97.25,40.75,26.06,2.87,-11.12,-2.96,2.02,-15.63,-5.87,3.19,20.69,13.06,31.50,-12.37,-2.06,9.88,-174.31,-12.19,6.62,31.50,11.00,16.25,walk
40.52,-12.43,-3.40,2.79,1.44,-10.13,-2.00,20.69,13.06,31.50,-27.29,0.56,4.22,-102.31,249.69,34.19,48.19,19.00,-23.75,-12.77,-2.96,3.21,8.31,-19.19,-8.38,20.25,12.25,31.50,-2.16,-3.06,-0.14,-133.19,-18.31,7.19,31.50,11.00,16.25,walk
40.54,-11.28,-0.84,4.67,3.69,-47.75,-18.56,20.25,12.25,31.50,4.46,-7.29,5.53,-171.75,177.62,7.37,48.19,19.00,-23.75,-10.59,-0.16,4.74,-6.00,-52.31,-19.12,20.25,12.25,31.50,-4.63,0.81,-7.02,-61.56,34.31,47.19,31.50,9.88,19.37,walk
40.58,-10.50,-0.36,2.95,-30.69,-30.94,-16.31,21.06,13.06,30.69,-39.26,2.58,16.37,-157.56,254.62,-109.87,53.38,16.69,-24.69,-10.98,-0.98,1.57,-42.69,1.87,-20.75,21.06,13.06,30.69,-20.38,-8.77,13.66,-76.56,80.62,0.44,32.19,6.56,19.37,walk
40.61,-11.42,-2.88,-4.02,-37.50,20.06,-23.31,21.06,13.06,30.69,-8.35,-4.30,10.21,-84.62,57.63,-47.88,60.69,19.56,-18.56,-11.02,-2.56,-5.47,-22.87,31.81,-21.87,22.56,12.69,30.69,5.38,0.00,-16.65,-160.56,-102.69,56.94,32.19,6.56,19.37,walk
40.64,-9.71,-1.16,-6.70,14.38,13.75,-15.50,22.56,12.69,30.69,-6.75,-0.67,8.63,-24.94,18.56,-28.87,60.69,19.56,-18.56,-10.69,1.75,-3.21,15.50,-23.12,-10.63,22.56,12.69,30.69,-16.60,11.87,-2.24,206.25,143.37,6.62,31.75,4.75,24.19,walk
40.68,-11.24,2.51,2.14,-12.38,-27.56,-5.37,20.25,12.25,31.06,-5.29,1.43,8.17,-4.69,1.25,-6.25,62.25,26.00,-14.38,-11.02,1.99,3.02,-27.12,-17.37,-4.31,20.25,12.25,31.06,-10.75,3.26,-0.92,9.94,72.00,1.62,32.56,3.75,22.19,walk
40.71,-10.40,-0.06,3.01,-47.50,12.06,-4.37,20.25,12.25,31.06,-4.81,0.53,8.30,-4.19,5.75,-5.19,63.00,26.69,-13.06,-9.91,-2.96,-0.52,-39.44,20.31,0.62,21.75,13.06,31.06,-9.95,2.64,-0.34,-20.56,115.50,3.75,32.56,3.75,22.19,walk
40.74,-10.15,-3.45,-1.34,-21.62,12.31,13.38,21.75,13.06,31.06,-5.02,0.39,8.73,-1.75,10.19,-4.87,63.00,26.69,-13.06,-9.25,-3.22,-1.05,-16.87,3.62,17.75,21.75,13.06,31.06,-9.14,-2.20,-0.77,-33.06,103.31,9.31,32.19,5.56,24.87,walk
40.78,-7.67,-2.25,-0.22,-12.00,-4.81,19.37,20.69,12.25,32.25,-4.97,0.69,8.44,-4.12,4.62,-4.75,61.75,26.87,-13.00,-6.19,-1.12,0.60,-11.38,-4.69,17.31,20.69,12.25,32.25,-9.64,-0.88,0.72,51.88,109.19,4.75,29.25,3.87,27.19,walk
40.81,-5.32,-0.67,1.19,-5.06,3.75,9.25,20.69,12.25,32.25,-5.16,0.74,8.22,5.37,15.69,-6.12,61.69,27.56,-13.00,-4.98,-0.88,1.48,-2.12,10.63,4.94,20.69,12.25,32.25,-9.13,0.20,0.19,69.62,90.94,-0.44,29.25,3.87,27.19,walk
40.84,-5.26,-1.11,1.12,-0.75,26.56,1.31,21.75,12.38,31.75,-5.46,0.74,7.76,2.31,12.81,-7.62,61.69,27.56,-13.00,-6.13,-1.03,0.49,-1.25,31.25,2.00,21.75,12.38,31.75,-8.67,-0.28,1.15,66.06,85.62,-4.12,27.06,5.37,30.37,walk
40.87,-7.29,-0.56,0.05,0.69,36.50,5.56,21.75,12.38,31.75,-4.63,0.36,8.57,3.00,8.06,-9.38,62.06,27.56,-11.88,-8.38,-0.10,0.19,-0.62,33.25,6.69,21.75,11.69,31.37,-9.96,0.75,0.94,50.81,88.00,-6.31,25.25,7.19,31.50,walk
40.90,-8.70,-0.16,0.45,-4.00,30.62,2.94,21.75,11.69,31.37,-5.17,0.85,8.44,12.50,15.63,-11.31,62.06,27.56,-11.88,-8.87,-0.35,0.78,-2.31,28.31,0.19,21.75,11.69,31.37,-8.98,0.30,-0.12,24.44,77.06,3.62,25.25,7.19,31.50,walk
40.93,-9.13,-1.06,1.50,1.31,23.75,-3.19,20.69,12.25,32.56,-5.47,0.28,8.63,14.50,21.94,-15.94,61.56,28.19,-11.75,-8.96,-1.34,1.50,11.75,19.56,-6.12,20.69,12.25,32.56,-9.66,-0.22,1.38,36.75,80.00,0.44,22.75,9.00,33.75,walk
40.97,-9.34,-0.92,1.24,19.75,19.25,-3.75,20.69,12.25,32.56,-5.41,0.65,8.49,16.19,40.13,-17.19,63.06,27.50,-11.75,-9.59,-0.65,1.03,18.62,19.62,-1.56,19.56,11.19,33.38,-9.90,-0.10,2.21,74.69,69.25,-9.13,22.75,9.00,33.75,walk
40.99,-10.69,-0.21,0.71,16.12,19.94,5.06,19.56,11.19,33.38,-4.72,1.80,9.49,5.44,66.87,-27.19,63.06,27.50,-11.75,-11.18,-0.48,0.59,15.19,15.25,6.81,19.56,11.19,33.38,-11.46,-0.25,2.36,79.94,52.88,-9.94,20.19,9.00,35.06,walk
41.03,-11.54,-0.91,1.80,14.50,7.12,1.69,19.37,11.88,34.19,-4.79,0.81,9.16,-31.37,121.94,-48.38,62.38,29.00,-9.75,-11.74,-0.94,2.26,19.81,2.19,-1.19,19.37,11.88,34.19,-11.17,-0.20,3.27,91.50,34.88,-13.75,19.19,11.19,35.69,walk
41.06,-12.10,-1.57,3.17,24.25,-4.81,2.94,19.37,11.88,34.19,-4.53,2.15,9.35,-74.25,170.25,-77.81,61.19,29.69,-5.87,-11.87,-1.94,3.37,25.12,-8.94,9.25,19.37,11.88,34.19,-11.64,-0.23,5.72,80.25,24.19,-16.31,19.19,11.19,35.69,walk
41.09,-11.21,-1.94,3.15,31.56,-9.56,20.25,17.50,12.75,34.56,-4.41,3.55,12.13,-108.37,268.00,-148.69,61.19,29.69,-5.87,-11.31,-0.48,0.12,44.88,-3.56,21.00,17.50,12.75,34.56,-14.57,-1.81,9.38,78.06,-26.00,-24.81,18.87,14.06,35.38,walk
41.12,-11.43,0.32,-0.94,47.63,-0.94,20.06,18.69,12.75,33.00,-9.22,-6.88,13.44,-112.69,425.69,-190.12,58.88,33.00,3.87,-12.02,0.84,-5.54,24.75,10.44,20.56,18.69,12.75,33.00,-15.54,0.01,0.73,67.25,-146.19,-31.12,18.50,17.69,33.25,walk
41.15,-11.27,0.43,-6.22,-17.19,-6.56,18.75,18.69,12.75,33.00,-17.80,6.03,22.32,-1.50,563.00,-162.94,50.00,38.06,20.19,-9.51,-2.41,-5.01,-25.81,-9.75,16.75,18.69,12.75,33.00,-16.57,5.42,-4.40,84.31,-182.50,13.56,18.50,17.69,33.25,walk
41.19,-8.98,-3.63,-4.27,-6.56,-15.19,14.00,19.50,13.88,35.00,-11.53,13.99,13.99,-73.50,498.87,-202.94,50.00,38.06,20.19,-9.81,-4.93,-1.24,7.37,-11.75,12.94,19.50,13.88,35.00,-15.71,1.90,-3.02,-124.44,-174.81,41.63,22.50,19.87,30.87,walk
41.22,-10.17,-4.21,-0.28,29.37,5.00,9.56,19.50,13.88,35.00,-7.16,18.81,19.48,35.81,-134.81,62.88,30.69,39.56,39.25,-10.84,-1.80,0.60,39.75,9.00,6.56,18.75,12.69,33.38,-16.41,-2.06,-2.55,-123.31,-155.12,42.25,22.50,19.87,30.87,walk
41.25,-11.31,0.00,0.36,53.06,2.94,-3.06,18.75,12.69,33.38,2.06,-0.83,7.52,-70.19,-267.00,160.81,30.69,39.56,39.25,-11.12,0.89,-0.77,52.06,-1.12,-8.50,18.75,12.69,33.38,-11.09,-1.73,-2.03,-57.31,-146.56,54.25,26.19,19.19,27.56,walk
41.28,-9.46,1.24,-1.88,34.38,-10.63,-17.37,19.25,13.06,33.00,-5.81,1.75,10.92,64.00,-276.56,158.31,32.00,34.06,34.50,-7.36,0.88,-1.65,22.62,-10.13,-19.69,19.25,13.06,33.00,-8.59,-2.43,-2.56,-26.31,-140.56,46.25,30.50,15.75,23.00,walk
41.31,-6.05,-0.17,0.02,12.50,-9.56,-18.94,19.25,13.06,33.00,-7.09,0.76,9.66,68.69,-378.25,124.19,32.00,34.06,34.50,-5.97,-0.49,0.60,10.50,-9.13,-17.19,19.25,13.06,33.00,-7.81,-2.53,-3.05,-14.81,-120.06,34.50,30.50,15.75,23.00,walk
41.34,-6.01,-0.78,0.99,4.31,-1.94,-13.13,20.00,14.50,33.75,-5.95,-2.64,7.09,86.44,-400.44,103.56,44.69,22.56,17.19,-6.46,-1.06,1.24,0.25,4.00,-10.56,20.00,14.50,33.75,-6.60,-0.28,-4.15,-33.38,-106.56,21.69,34.06,14.06,21.50,walk
41.37,-6.97,-1.07,1.02,-7.31,9.50,-5.37,20.00,14.50,33.75,-10.97,-1.35,10.87,145.87,-344.44,72.19,41.56,14.00,-2.87,-7.34,-1.40,0.50,-9.75,10.31,-3.00,18.87,15.56,32.56,-3.61,-1.12,-4.89,-124.19,-101.81,-2.50,34.06,14.06,21.50,walk
41.40,-7.63,-2.03,-0.03,-13.69,11.19,0.06,18.87,15.56,32.56,-11.97,-0.19,11.05,141.81,-325.56,63.44,41.56,14.00,-2.87,-8.28,-2.42,-0.10,-16.81,11.88,0.81,18.87,15.56,32.56,-3.25,-2.91,-3.24,-66.56,-52.00,-9.06,35.19,12.19,18.37,walk
41.42,-8.62,-2.44,0.04,-21.31,11.88,1.44,18.87,16.00,33.00,-14.58,-0.33,11.71,127.87,-235.31,90.81,35.69,10.00,-12.06,-8.96,-2.21,0.69,-27.75,2.56,2.37,18.87,16.00,33.00,-4.80,0.30,-0.51,51.31,1.25,-1.44,37.06,10.38,16.00,walk
41.46,-8.90,-1.62,1.52,-25.69,-10.69,4.62,18.87,16.00,33.00,-21.30,-4.81,13.05,120.37,-192.12,123.50,35.69,10.00,-12.06,-9.05,-1.58,1.74,-22.94,-14.38,6.00,18.87,16.00,33.00,-7.44,2.71,2.53,96.81,35.38,9.88,37.06,10.38,16.00,walk
41.49,-9.31,-1.66,2.18,-20.19,-13.00,7.25,18.50,14.50,32.19,-26.32,-1.41,8.22,81.31,-233.00,142.12,31.56,8.19,-18.56,-9.96,-1.74,2.03,-18.81,-8.31,6.31,18.50,14.50,32.19,-12.10,4.56,13.84,-44.38,35.13,49.81,35.69,11.19,14.50,walk
41.52,-10.66,-1.92,1.47,-27.19,-6.69,4.50,18.50,14.50,32.19,-29.76,-16.05,-19.17,-35.50,-117.44,77.19,32.06,-0.06,-26.50,-10.73,-2.26,1.28,-31.75,-7.94,4.94,19.25,14.06,33.75,-11.92,-2.03,13.95,-161.06,-2.06,1.25,35.69,11.19,14.50,walk
41.56,-11.55,-3.53,1.37,-27.31,-10.25,5.62,19.25,14.06,33.75,-21.83,0.19,-4.94,-55.38,209.31,20.06,32.06,-0.06,-26.50,-12.20,-3.73,1.70,-3.12,-15.56,-1.94,19.25,14.06,33.75,-8.25,-6.44,6.07,-61.88,-26.50,9.94,35.25,10.25,14.50,walk
41.59,-12.85,-2.03,4.07,13.75,-43.31,-18.19,19.25,13.06,32.19,-6.02,-3.99,23.11,-90.56,242.62,-3.00,26.25,-4.06,-32.00,-11.84,-1.38,4.35,10.94,-58.25,-25.19,19.25,13.06,32.19,-6.38,0.16,-2.24,4.81,32.13,49.56,35.38,8.06,16.37,walk
41.62,-11.13,-1.02,4.05,-17.37,-37.88,-30.31,19.25,13.06,32.19,-24.82,6.97,11.81,-84.56,194.81,-68.75,31.56,-6.75,-26.69,-11.45,-0.92,1.89,-32.38,-12.13,-29.37,18.87,12.69,32.56,-31.32,-2.60,4.52,-180.62,91.12,-9.50,35.38,8.06,16.37,walk
41.65,-12.40,-1.69,-3.58,-24.00,20.50,-26.94,18.87,12.69,32.56,-8.39,-12.42,13.19,-39.56,53.75,-37.94,31.56,-6.75,-26.69,-10.16,-0.79,-5.87,-2.25,13.25,-24.44,18.87,12.69,32.56,3.33,1.35,-11.34,108.62,-42.81,44.56,34.69,7.06,17.56,walk
41.68,-9.12,0.61,-5.41,32.00,-22.56,-15.63,20.00,12.69,32.56,-5.15,-2.02,9.30,-29.37,28.62,-29.56,38.00,-7.19,-23.56,-9.90,1.72,-2.37,21.62,-29.44,-8.50,20.00,12.69,32.56,-14.43,11.76,1.38,215.56,168.62,1.69,35.38,3.75,17.06,walk
41.71,-10.23,1.92,-0.50,-18.87,-20.81,-4.62,20.00,12.69,32.56,-4.98,1.35,8.19,-15.31,20.75,-22.31,40.00,-6.87,-22.00,-10.03,1.56,2.32,-34.56,-10.44,-7.00,20.00,12.69,32.56,-11.30,5.73,-1.05,-28.37,60.44,18.75,35.38,3.75,17.06,walk
41.74,-9.72,-0.42,1.69,-49.13,14.06,-7.00,19.25,12.69,32.56,-5.22,0.00,8.73,-22.75,12.00,-13.69,40.00,-6.87,-22.00,-9.93,-1.31,0.27,-46.25,22.44,-3.37,19.25,12.69,32.56,-8.15,1.14,-0.71,-42.06,94.81,11.63,33.25,7.37,20.00,walk
41.77,-10.34,-2.35,-1.82,-15.50,17.75,9.81,19.25,12.69,32.56,-5.14,0.64,8.34,-10.31,15.31,-6.75,39.69,-6.56,-22.25,-10.29,-2.64,-2.54,-4.25,10.75,16.44,18.37,11.88,32.56,-9.18,-0.15,-0.95,-20.81,101.00,3.50,33.25,7.37,20.00,walk
41.80,-8.38,-2.03,-0.59,-3.62,-6.87,21.69,18.37,11.88,32.56,-5.13,0.79,8.11,2.75,10.94,-8.38,39.69,-6.56,-22.25,-7.66,-1.62,0.33,-6.19,-11.13,19.37,18.37,11.88,32.56,-9.69,-0.98,0.77,48.06,110.00,3.62,31.06,5.50,22.19,walk
41.83,-7.01,-1.24,1.07,-11.19,-7.62,9.75,18.75,11.56,32.56,-5.00,0.56,8.30,1.25,19.69,-7.75,41.00,-5.87,-21.50,-5.69,-0.92,1.81,-12.88,-2.37,6.37,18.75,11.56,32.56,-8.94,-0.61,0.33,87.56,101.62,-2.12,28.06,5.50,25.06,walk
41.86,-5.41,-0.97,1.17,-10.88,12.25,5.31,18.75,11.56,32.56,-5.33,0.70,7.98,6.69,19.06,-9.06,40.56,-6.25,-21.00,-5.71,-1.02,0.28,-5.50,17.44,6.00,18.75,11.56,32.56,-8.93,0.51,0.09,66.62,93.44,-9.69,28.06,5.50,25.06,walk
41.89,-6.56,-0.74,-0.11,6.06,22.31,6.75,19.19,10.75,31.75,-5.31,0.68,8.09,7.19,16.69,-7.44,40.56,-6.25,-21.00,-7.32,-0.23,0.12,7.31,21.94,5.62,19.19,10.75,31.75,-9.23,-0.11,1.10,79.56,81.06,-14.25,24.87,7.00,26.25,walk
41.92,-7.58,-0.06,0.36,2.62,20.75,1.19,19.19,10.75,31.75,-5.24,0.69,8.29,11.06,11.13,-12.00,41.25,-5.19,-19.75,-7.71,0.01,0.87,0.44,21.12,-0.69,18.06,10.06,32.56,-9.13,0.49,1.35,38.50,93.25,-5.94,24.87,7.00,26.25,walk
41.95,-7.98,-0.42,1.32,-2.19,24.12,-3.00,18.06,10.06,32.56,-4.56,0.39,8.62,8.56,18.37,-15.81,41.25,-5.19,-19.75,-8.02,-0.65,1.40,-0.50,23.75,-3.62,18.06,10.06,32.56,-9.77,0.30,0.21,11.56,85.31,2.12,22.25,9.06,27.50,walk
41.98,-8.59,-1.22,1.44,8.25,22.87,-3.56,18.06,10.75,33.75,-5.19,0.06,8.73,11.81,36.56,-14.69,41.25,-5.19,-19.00,-9.01,-1.17,1.30,14.25,23.44,-3.56,18.06,10.75,33.75,-9.38,-0.90,1.24,30.87,78.87,-4.44,19.37,10.56,29.56,walk
42.01,-9.84,-0.72,1.23,20.06,22.44,-2.87,18.06,10.75,33.75,-5.38,2.12,8.63,17.19,45.25,-20.37,41.25,-5.56,-18.56,-10.08,-0.57,1.18,20.62,20.50,-1.06,18.06,10.75,33.75,-10.62,-0.05,2.11,69.87,67.44,-11.19,19.37,10.56,29.56,walk
42.05,-10.96,-0.98,0.68,22.94,17.31,3.37,16.56,11.19,33.75,-5.20,1.23,8.89,-9.56,79.44,-37.38,41.25,-5.56,-18.56,-11.28,-0.86,0.67,25.87,7.06,1.19,16.56,11.19,33.75,-10.97,0.62,3.65,92.12,49.38,-14.88,17.56,11.69,30.75,walk
42.08,-11.46,-0.66,1.71,26.12,-0.44,-1.69,16.69,11.19,34.19,-4.95,1.34,9.44,-61.56,139.25,-65.00,42.00,-4.75,-17.50,-11.50,-0.79,2.25,23.50,-3.19,0.88,16.69,11.19,34.19,-11.33,-0.52,5.47,104.37,32.69,-14.88,17.56,11.69,30.75,walk
42.11,-11.62,-1.90,3.44,22.75,-10.44,10.69,16.69,11.19,34.19,-3.37,3.03,10.79,-89.81,181.37,-97.25,42.00,-4.75,-17.50,-11.94,-1.81,3.12,31.12,-10.13,14.25,16.69,11.19,34.19,-12.83,-0.50,9.41,91.37,11.00,-16.06,15.75,14.56,28.87,walk
42.14,-12.50,-1.13,0.91,47.94,-3.12,17.37,14.75,12.25,32.56,-9.14,-0.76,15.07,-116.06,367.50,-209.69,43.06,-2.87,-12.38,-12.58,0.02,-2.87,43.69,3.69,18.69,14.75,12.25,32.56,-16.03,0.56,6.61,101.25,-70.19,-32.06,15.00,18.19,29.25,walk
42.17,-11.52,0.93,-5.75,4.56,13.81,20.19,14.75,12.25,32.56,-16.37,1.85,22.11,-6.06,549.44,-179.81,42.06,2.69,-5.75,-10.24,-0.45,-6.71,-15.00,10.88,21.81,14.25,12.25,35.50,-16.32,5.51,-9.13,40.94,-173.94,-7.56,15.00,18.19,29.25,walk
42.21,-10.31,-2.43,-5.32,-18.25,-3.44,20.19,14.25,12.25,35.50,-12.02,12.62,22.91,-63.88,572.62,-219.25,42.06,2.69,-5.75,-11.24,-4.63,-1.86,2.81,-14.94,13.50,14.25,12.25,35.50,-17.48,2.31,-1.86,2.81,-195.50,37.81,13.50,21.06,28.37,walk
42.24,-11.65,-3.42,-0.43,16.25,-8.94,8.25,13.69,11.88,34.25,-16.55,17.98,25.23,34.81,-185.50,92.75,37.56,7.50,12.25,-11.29,-0.88,0.42,23.94,-8.56,6.19,13.69,11.88,34.25,-16.38,-1.09,-3.56,-132.69,-146.62,37.75,18.56,23.69,24.25,walk
42.27,-11.10,0.00,0.46,35.50,-14.19,-3.00,13.69,11.88,34.25,2.35,3.26,6.38,-40.88,-227.37,168.69,19.19,15.25,22.56,-10.70,1.04,-0.44,34.31,-15.13,-8.75,13.50,11.06,33.88,-12.83,-1.43,-2.29,-79.50,-143.37,54.56,18.56,23.69,24.25,walk
42.30,-8.41,1.35,-1.50,16.94,-15.56,-16.12,13.50,11.06,33.88,-3.26,0.80,9.00,48.00,-244.19,157.19,19.19,15.25,22.56,-7.53,1.02,-1.20,8.56,-14.44,-17.62,13.50,11.06,33.88,-9.54,-1.43,-2.24,-39.44,-136.00,59.56,23.06,21.06,23.69,walk
42.33,-6.18,-0.51,0.44,5.50,-9.19,-15.75,15.00,11.50,35.06,-7.75,1.70,10.52,53.75,-342.06,134.94,17.37,18.56,20.25,-6.12,-1.01,0.91,4.94,-7.69,-13.38,15.00,11.50,35.06,-7.69,-2.37,-2.76,-39.63,-126.75,52.50,26.00,18.56,22.75,walk
42.36,-5.85,-1.66,0.73,-9.13,0.81,-9.75,15.00,11.50,35.06,-5.70,-1.90,6.99,81.87,-375.31,129.06,22.75,19.75,15.56,-5.83,-1.61,0.48,-16.81,5.87,-8.38,15.00,11.50,35.06,-6.34,-0.86,-4.31,-41.81,-105.00,46.31,26.00,18.56,22.75,walk
42.39,-6.43,-1.03,-0.04,-22.94,11.06,-6.19,15.00,12.19,34.56,-9.35,-2.37,10.56,113.06,-337.31,99.19,22.75,19.75,15.56,-6.72,-1.08,-0.06,-22.12,11.00,-4.31,15.00,12.19,34.56,-4.84,0.21,-4.98,-87.56,-100.50,20.56,28.75,15.69,22.06,walk
42.42,-7.63,-1.97,0.39,-16.81,11.50,1.37,15.00,12.19,34.56,-11.80,-2.02,12.19,134.50,-329.12,49.69,28.87,22.25,7.87,-7.99,-2.26,0.63,-16.12,11.38,3.87,14.25,11.38,33.38,-4.02,-2.27,-3.61,-128.44,-94.87,-5.81,28.75,15.69,22.06,walk
42.45,-8.72,-2.66,0.79,-17.25,8.25,5.87,14.25,11.38,33.38,-13.53,0.97,11.76,148.31,-291.44,37.13,28.87,22.25,7.87,-9.13,-2.73,0.87,-18.31,6.69,6.44,14.25,11.38,33.38,-4.86,-1.93,-1.85,-23.69,-9.25,5.00,31.69,14.56,20.50,walk
42.48,-9.11,-2.40,0.89,-20.44,1.75,8.00,13.19,9.88,34.19,-18.55,-4.20,11.51,129.75,-201.62,84.19,33.00,23.00,-1.50,-9.50,-1.81,1.31,-19.81,-2.87,9.81,13.19,9.88,34.19,-7.52,0.98,1.85,64.81,17.62,5.06,32.00,12.38,19.25,walk
42.52,-9.64,-1.63,1.50,-16.25,-6.75,11.56,13.19,9.88,34.19,-29.91,-2.92,13.24,117.19,-163.87,138.06,35.75,23.25,-18.50,-9.76,-1.47,1.65,-17.25,-6.50,11.19,13.56,9.19,36.56,-11.39,2.99,11.76,75.06,51.50,26.44,32.00,12.38,19.25,walk
42.55,-10.62,-1.30,1.70,-24.06,-9.88,8.50,13.56,9.19,36.56,-33.91,-8.38,-10.92,-19.81,-227.75,144.81,35.75,23.25,-18.50,-10.76,-2.39,1.19,-26.19,-10.75,8.69,13.56,9.19,36.56,-12.64,-1.61,13.80,-148.56,0.44,20.31,32.56,13.06,18.37,walk
42.58,-10.97,-3.27,1.32,-26.87,-10.44,9.88,14.00,8.75,36.19,-13.10,-3.07,-13.82,-51.31,182.44,60.44,34.19,17.06,-31.75,-11.34,-3.51,1.63,-20.56,-13.19,7.94,14.00,8.75,36.19,-8.75,-4.55,6.35,-118.00,-27.25,12.94,32.19,13.06,20.37,walk
42.62,-12.71,-2.28,3.59,-1.56,-23.94,-6.25,14.00,8.75,36.19,-6.36,-3.73,19.17,-116.19,215.31,-13.81,31.69,13.50,-37.06,-12.50,-1.51,4.17,2.50,-37.31,-14.75,14.00,8.75,36.19,-6.83,-0.87,-2.64,-15.44,55.81,32.25,32.19,13.06,20.37,walk
42.65,-11.03,0.05,4.22,-17.94,-35.75,-20.31,13.69,7.00,35.75,-39.17,3.16,21.89,-87.25,297.31,-82.00,31.69,13.50,-37.06,-11.61,-0.55,1.17,-32.00,-14.75,-18.75,13.69,7.00,35.75,-29.79,-0.77,17.04,-76.37,70.06,-14.00,31.06,11.00,22.69,walk
42.68,-11.16,-2.19,-4.63,-43.06,12.88,-18.94,13.69,7.69,35.75,-12.20,-8.71,12.19,-45.44,59.75,-36.31,40.88,16.87,-30.06,-10.42,-1.97,-6.22,-26.50,21.81,-17.62,13.69,7.69,35.75,0.20,-5.72,-17.35,-75.19,-105.25,65.56,31.06,11.00,22.69,walk
42.72,-9.35,0.02,-6.14,15.00,-5.19,-11.69,13.69,7.69,35.75,-6.42,2.78,8.28,-14.13,20.69,-16.56,44.25,21.19,-22.69,-9.70,0.89,-4.59,15.94,-14.25,-10.56,13.25,5.19,34.56,-16.30,8.77,-5.30,50.25,127.12,-8.00,29.56,9.19,23.06,walk
42.75,-10.98,1.61,-0.18,-2.50,-9.50,-7.19,13.25,5.19,34.56,-5.38,0.89,8.35,-6.56,13.50,-10.88,44.25,21.19,-22.69,-11.50,0.36,1.51,-16.12,3.06,-4.44,13.25,5.19,34.56,-9.10,0.27,-1.52,-16.87,61.75,20.87,32.19,9.19,22.37,walk
42.78,-10.71,-1.95,-0.19,-32.38,15.50,-0.44,13.25,6.25,35.38,-5.19,-0.12,8.76,-7.19,12.56,-7.62,43.75,21.19,-21.19,-10.46,-2.53,-1.09,-25.87,14.00,2.50,13.25,6.25,35.38,-9.57,-0.11,-0.41,-12.69,113.62,4.56,32.19,9.19,22.37,walk
42.81,-9.43,-2.65,-1.70,-5.37,5.50,10.88,13.25,6.25,35.38,-5.03,0.68,8.39,1.69,14.63,-6.69,44.19,22.69,-20.75,-8.85,-2.40,-1.34,-2.50,2.56,14.75,13.25,6.25,35.38,-9.87,-0.09,-0.25,17.25,92.31,9.19,29.00,10.19,25.00,walk
42.84,-7.15,-1.08,0.24,-1.25,-2.62,15.38,11.25,4.75,34.19,-5.30,0.88,8.04,3.12,17.37,-5.94,44.19,22.69,-20.75,-6.86,-0.82,0.52,3.87,-2.12,12.25,11.25,4.75,34.19,-9.12,0.09,0.66,81.75,98.31,0.25,27.00,9.88,25.69,walk
42.87,-6.71,-0.73,0.73,13.56,3.62,4.31,11.25,4.75,34.19,-5.45,0.66,8.17,4.94,19.62,-6.87,44.50,23.06,-18.75,-6.19,-1.06,0.52,14.88,4.75,2.06,11.25,3.69,33.38,-8.93,0.20,0.56,70.37,96.56,-4.94,27.00,9.88,25.69,walk
42.91,-5.93,-1.23,0.33,12.88,11.31,1.56,11.25,3.69,33.38,-5.53,0.47,8.00,3.87,23.94,-7.06,44.50,23.06,-18.75,-6.46,-0.84,0.09,10.81,15.69,2.06,11.25,3.69,33.38,-9.25,-0.21,1.70,75.12,77.12,-6.31,25.56,11.69,27.75,walk
42.94,-7.21,0.07,0.09,11.31,17.44,-0.94,10.19,4.00,35.50,-5.43,0.46,8.06,7.62,24.31,-8.00,45.19,23.06,-19.25,-7.92,0.21,-0.14,12.56,14.13,-2.75,10.19,4.00,35.50,-8.79,0.72,1.45,63.50,76.87,-6.19,22.25,13.50,29.25,walk
42.97,-7.99,0.15,-0.13,5.81,14.50,-5.25,10.19,4.00,35.50,-5.69,0.85,8.08,9.19,18.50,-9.06,45.56,22.69,-18.75,-8.06,0.03,0.07,3.44,14.69,-6.62,9.38,2.87,33.88,-8.50,1.16,0.00,21.19,61.94,2.12,22.25,13.50,29.25,walk
43.00,-8.22,-0.46,1.04,3.50,12.19,-7.50,9.38,2.87,33.88,-5.52,0.54,8.18,10.63,9.88,-11.50,45.56,22.69,-18.75,-8.32,-0.84,1.17,6.00,9.19,-6.31,9.38,2.87,33.88,-9.35,-0.90,0.85,20.44,65.75,3.69,19.75,16.00,29.00,walk
43.03,-8.95,-0.85,1.02,10.38,11.81,-5.31,8.00,3.69,33.06,-5.64,0.23,8.45,17.94,24.19,-15.38,44.06,23.69,-17.56,-9.22,-0.84,1.11,11.75,12.88,-5.56,8.00,3.69,33.06,-10.06,-0.21,0.87,58.81,60.06,-7.06,19.37,19.00,30.37,walk
43.07,-10.43,-0.56,1.39,7.69,12.88,-5.62,8.00,3.69,33.06,-5.85,1.21,8.13,30.25,37.81,-18.19,44.75,24.00,-18.00,-10.69,-0.33,1.26,6.31,10.00,-4.00,8.00,3.69,33.06,-10.32,1.27,1.08,85.00,59.19,-11.88,19.37,19.00,30.37,walk
43.10,-11.08,-0.24,0.81,6.12,6.25,4.56,7.56,4.37,32.69,-5.13,1.42,9.15,18.56,59.63,-26.06,44.75,24.00,-18.00,-10.90,-0.33,0.93,4.44,3.81,4.87,7.56,4.37,32.69,-10.92,-0.04,2.70,80.19,47.50,-12.38,17.06,20.37,29.06,walk
43.13,-10.74,-0.68,1.63,2.94,-0.88,3.50,7.56,4.37,32.69,-5.10,1.55,9.03,-10.50,108.62,-37.63,45.56,24.06,-17.56,-11.61,-1.48,2.49,-0.44,-1.37,4.37,6.00,5.19,33.56,-10.94,-1.47,4.51,77.25,32.94,-13.13,17.06,20.37,29.06,walk
43.16,-11.87,-1.93,2.77,4.94,-11.19,12.06,6.00,5.19,33.56,-4.27,2.48,9.26,-62.06,163.50,-65.12,45.56,24.06,-17.56,-11.09,-2.61,3.27,4.94,-11.19,12.06,6.00,5.19,33.56,-11.45,-1.30,6.15,65.31,16.12,-20.00,16.37,23.25,27.87,walk
43.19,-10.96,-1.72,2.58,30.56,-11.31,16.31,6.00,5.87,32.38,-4.47,2.41,10.34,-96.94,257.56,-127.75,45.88,25.19,-14.50,-11.12,-0.15,1.10,43.50,-12.31,19.69,6.00,5.87,32.38,-13.92,1.72,4.65,102.19,-12.81,-38.13,14.75,26.19,26.00,walk
43.22,-11.13,1.27,-0.45,24.00,5.75,18.56,6.00,5.87,32.38,-9.86,-0.74,13.21,-66.31,399.81,-144.37,45.50,28.19,-7.00,-11.14,1.18,-4.27,7.94,12.75,14.63,6.25,4.75,31.19,-14.46,4.51,2.90,68.62,-108.62,-32.88,14.75,26.19,26.00,walk
43.25,-9.78,-0.54,-5.06,-22.00,11.31,8.75,6.25,4.75,31.19,-18.07,5.50,18.74,46.19,543.31,-146.75,45.50,28.19,-7.00,-10.06,-2.80,-4.90,-28.00,12.38,10.81,6.25,4.75,31.19,-16.48,4.05,-5.01,30.69,-165.37,9.06,14.19,30.56,22.87,walk
43.28,-10.57,-3.97,-4.48,-18.19,9.13,15.75,5.50,6.69,30.00,-8.47,11.25,18.60,-5.87,482.69,-192.75,40.69,33.69,9.69,-10.81,-5.42,-3.10,15.81,-2.12,17.69,5.50,6.69,30.00,-16.40,1.07,-2.03,-66.75,-189.44,37.88,14.19,30.56,22.87,walk
43.31,-11.33,-2.36,-1.38,33.06,1.56,9.75,5.50,6.69,30.00,-33.95,12.00,37.06,-9.31,2.12,-53.25,29.19,40.00,21.75,-11.28,-0.82,-0.74,38.25,-0.81,4.75,5.50,6.69,30.00,-16.13,-2.59,-3.12,-136.31,-139.81,36.38,17.00,33.19,17.50,walk
43.35,-10.69,1.81,0.12,44.88,-7.75,-2.12,5.37,6.37,30.37,3.72,2.81,4.24,-50.56,-266.94,107.94,29.19,40.00,21.75,-10.07,2.26,-0.48,29.12,-9.44,-8.38,5.37,6.37,30.37,-10.41,-2.07,-1.08,-42.88,-137.31,37.69,20.00,32.25,17.25,walk
43.38,-7.03,1.29,-0.21,7.25,-16.19,-13.00,6.87,7.06,30.37,-3.99,2.74,8.46,58.88,-269.44,126.50,28.37,42.69,17.19,-6.46,0.66,-0.17,4.12,-12.00,-15.50,6.87,7.06,30.37,-7.07,-1.69,-2.39,0.88,-134.50,47.13,20.00,32.25,17.25,walk
43.41,-6.09,-0.80,0.34,2.06,-1.31,-17.06,6.87,7.06,30.37,-7.66,2.57,8.96,36.13,-338.37,127.25,28.37,42.69,17.19,-5.92,-1.30,0.75,-1.69,1.69,-15.56,6.87,7.06,30.37,-6.91,-0.78,-3.09,-2.00,-100.81,47.13,23.25,29.87,17.25,walk
43.44,-5.95,-1.58,0.77,-7.37,6.56,-12.81,5.37,7.75,28.75,-6.81,-0.99,6.83,78.62,-372.75,124.94,37.00,41.19,7.75,-7.01,-1.22,0.19,-18.06,10.56,-5.75,5.37,7.75,28.75,-5.37,1.47,-4.99,-64.56,-93.00,25.06,24.87,28.75,14.88,walk
43.47,-7.46,-1.21,0.14,-19.37,11.56,-0.75,5.37,7.75,28.75,-10.21,-3.04,10.17,108.62,-339.69,99.62,41.00,39.38,-11.75,-8.04,-1.48,0.30,-19.81,11.38,-0.50,5.37,7.06,28.50,-4.90,0.50,-4.74,-160.94,-101.37,-16.25,24.87,28.75,14.88,walk
43.50,-8.21,-1.97,0.70,-18.19,11.75,-2.75,5.37,7.06,28.50,-11.78,-2.91,11.48,142.94,-315.19,33.88,41.00,39.38,-11.75,-8.32,-2.76,0.66,-16.62,10.00,-4.12,5.37,7.06,28.50,-5.40,-2.32,-1.63,-90.94,-42.06,-6.06,26.69,26.25,14.06,walk
43.54,-8.47,-2.59,0.50,-18.00,7.12,-2.50,5.37,6.50,29.25,-12.86,1.28,10.77,140.81,-260.25,-2.00,39.50,36.69,-25.00,-8.94,-2.01,0.54,-17.62,2.00,4.31,5.37,6.50,29.25,-5.69,-1.69,-0.01,73.94,-10.50,14.94,27.50,25.87,14.56,walk
43.57,-9.28,-1.56,0.81,-16.44,-0.62,7.75,5.37,6.50,29.25,-18.31,-2.86,11.37,133.25,-163.94,63.81,35.88,30.69,-43.06,-9.31,-1.33,1.03,-15.69,-2.75,10.13,4.69,6.87,28.06,-8.94,1.64,4.96,95.31,33.44,15.75,27.50,25.87,14.56,walk
43.60,-9.42,-0.90,1.55,-17.56,-3.12,8.81,4.69,6.87,28.06,-27.56,-2.69,9.47,52.25,-184.69,149.75,35.88,30.69,-43.06,-10.25,-1.08,1.38,-20.25,-2.25,7.12,4.69,6.87,28.06,-10.97,3.56,9.81,8.94,53.56,49.88,29.00,26.56,12.38,walk
43.63,-10.54,-1.21,1.17,-24.94,-1.50,5.50,5.69,7.19,28.06,-31.78,-12.82,-14.29,-58.50,-195.06,132.25,28.69,21.25,-52.25,-11.06,-1.81,0.81,-29.06,-0.88,5.06,5.69,7.19,28.06,-11.67,3.54,17.26,-134.81,-11.44,18.44,29.00,26.56,12.38,walk
43.66,-11.65,-2.93,1.64,-23.25,-9.56,7.81,5.69,7.19,28.06,-10.90,-5.30,-11.81,-73.50,189.44,53.88,21.19,13.56,-54.56,-11.90,-3.05,2.15,-15.88,-15.13,6.31,5.69,7.19,28.06,-10.58,-2.69,7.80,-163.50,-8.94,-14.69,29.75,26.87,12.50,walk
43.69,-12.26,-2.60,3.06,-6.44,-30.06,-5.94,6.06,7.19,28.06,-15.42,-3.78,3.90,-120.50,213.19,-5.37,21.19,13.56,-54.56,-11.75,-1.64,3.75,-8.25,-36.50,-11.94,6.06,7.19,28.06,-2.90,-3.33,-1.32,-117.69,-3.31,25.25,30.87,24.25,15.88,walk
43.72,-11.31,-1.14,3.82,-15.19,-37.19,-18.44,6.06,7.19,28.06,-29.22,-2.48,20.43,-120.44,250.56,-86.37,26.25,14.19,-48.88,-11.41,-1.12,1.96,-18.25,-26.69,-20.56,6.00,6.00,28.00,-32.07,-4.55,10.10,-140.44,126.94,-17.19,30.87,24.25,15.88,walk
43.75,-11.83,-1.32,0.30,-29.12,0.56,-22.50,6.00,6.00,28.00,1.40,-6.40,12.77,-102.31,55.81,-46.25,26.25,14.19,-48.88,-11.46,-1.99,-5.41,-22.62,13.81,-18.87,6.00,6.00,28.00,-18.95,-5.26,9.52,-74.00,-15.13,22.81,31.87,21.75,18.25,walk
43.78,-10.37,-1.76,-6.67,-5.56,14.00,-14.69,6.00,6.00,28.00,-6.75,1.95,8.00,-23.81,48.19,-25.44,35.56,17.00,-41.75,-9.64,0.11,-5.22,11.63,-2.69,-10.44,5.56,6.75,26.37,-9.26,7.40,1.01,257.56,64.69,24.75,31.87,21.75,18.25,walk
43.81,-10.06,1.78,-1.77,-6.19,-22.37,-6.87,5.56,6.75,26.37,-5.49,0.19,9.02,-2.00,22.12,-12.56,36.75,19.56,-38.19,-10.12,2.31,1.10,-13.88,-21.12,-7.75,5.56,6.75,26.37,-17.64,10.89,-5.55,59.50,107.12,-10.00,31.56,18.87,19.87,walk
43.84,-10.10,2.06,1.45,-30.06,-3.94,-8.69,5.06,6.75,26.75,-5.68,0.24,8.51,-7.81,7.12,-9.25,36.75,19.56,-38.19,-10.29,0.74,0.33,-40.75,8.44,-8.69,5.06,6.75,26.75,-9.27,1.19,-0.68,-21.75,78.81,15.00,31.19,20.25,20.00,walk
43.87,-10.62,-2.11,-1.77,-46.63,16.87,-5.62,5.06,6.75,26.75,-5.18,-0.07,8.67,-8.44,9.25,-5.81,37.69,20.56,-37.00,-10.79,-2.78,-2.26,-35.13,14.38,-0.06,5.19,6.37,25.56,-9.57,1.22,-0.57,-40.44,124.87,6.81,31.19,20.25,20.00,walk
43.90,-10.34,-3.36,-1.87,-12.63,-0.88,12.81,5.19,6.37,25.56,-5.34,0.29,8.18,-2.25,11.31,-4.87,37.69,20.56,-37.00,-9.01,-2.88,-0.64,-10.19,-6.87,16.87,5.19,6.37,25.56,-9.40,-1.14,-0.12,-30.37,106.75,9.25,30.06,20.69,21.87,walk
43.93,-8.38,-2.40,-0.05,-10.88,-8.88,18.37,6.37,5.50,26.37,-5.19,0.37,8.27,0.75,13.25,-5.94,37.25,21.19,-36.88,-6.88,-1.02,0.92,-13.19,-5.25,14.88,6.37,5.50,26.37,-9.23,-0.90,0.58,66.69,100.56,1.37,30.06,20.69,21.87,walk
43.96,-6.37,-0.79,0.88,-5.50,-0.88,6.87,6.37,5.50,26.37,-5.23,0.29,8.18,3.25,14.56,-6.50,38.38,21.19,-36.06,-5.50,-0.89,0.80,-0.44,5.25,4.50,6.37,5.50,26.37,-8.69,-1.00,0.45,86.37,98.25,1.19,27.19,18.87,25.87,walk
43.99,-5.49,-1.23,0.59,7.44,19.25,3.62,6.50,5.19,26.75,-5.52,0.31,8.07,4.37,14.75,-6.56,38.38,21.19,-36.06,-6.52,-1.01,0.46,10.63,22.12,4.06,6.50,5.19,26.75,-8.75,0.37,1.68,96.06,79.87,-8.00,26.50,19.25,27.06,walk
44.02,-7.28,-0.29,0.49,14.44,20.25,3.87,6.50,5.19,26.75,-5.30,0.49,8.10,7.75,12.25,-8.75,38.75,21.87,-36.06,-7.54,0.25,0.62,13.25,18.87,2.75,5.37,4.00,26.37,-9.26,0.45,1.47,62.69,83.87,-5.56,26.50,19.25,27.06,walk
44.05,-7.64,0.37,0.67,6.50,19.81,-0.88,5.37,4.00,26.37,-5.72,0.32,7.97,11.44,4.94,-11.38,38.75,21.87,-36.06,-8.03,0.23,0.88,5.19,20.69,-3.00,5.37,4.00,26.37,-9.27,1.50,1.03,31.25,82.44,-0.37,24.25,22.25,27.37,walk
44.08,-8.32,-0.11,1.06,10.56,21.12,-6.37,6.06,4.25,26.00,-5.45,0.24,8.25,9.25,16.06,-13.31,38.75,21.50,-35.69,-8.49,-0.27,1.20,12.63,19.69,-6.62,6.06,4.25,26.00,-9.06,-1.32,0.22,13.13,72.19,2.94,24.25,22.25,27.37,walk
44.11,-9.12,-0.58,1.12,14.56,18.87,-6.12,6.06,4.25,26.00,-5.45,-0.03,8.81,14.81,21.81,-15.19,38.38,20.75,-35.25,-9.34,-0.52,1.24,14.19,18.06,-6.56,6.06,4.25,26.00,-10.17,-0.18,0.88,39.81,71.56,-7.62,23.56,22.56,28.19,walk
44.14,-9.96,-0.55,1.60,12.81,18.00,-5.56,6.87,5.06,25.56,-5.27,1.12,8.74,24.87,39.56,-18.81,38.38,20.75,-35.25,-10.49,-0.87,1.04,12.81,17.06,-3.37,6.87,5.06,25.56,-10.10,0.36,2.07,69.31,66.19,-9.69,21.75,22.25,30.19,walk
44.17,-10.66,-1.12,0.38,18.62,12.25,0.50,6.87,5.06,25.56,-5.11,1.96,9.03,4.37,75.31,-33.06,38.75,21.06,-35.25,-10.80,-1.33,-0.11,18.75,7.37,-0.06,6.37,4.69,26.00,-11.07,0.82,3.29,81.25,61.25,-11.94,21.75,22.25,30.19,walk
44.20,-10.99,-0.87,0.87,15.50,-2.19,-2.25,6.37,4.69,26.00,-5.18,0.92,9.18,-34.38,122.06,-50.00,38.75,21.06,-35.25,-11.57,-0.49,2.79,16.56,-5.31,-0.75,6.37,4.69,26.00,-11.31,-0.66,4.18,85.31,33.13,-10.06,20.25,25.50,29.56,walk
44.23,-11.67,-1.08,3.36,20.00,-9.94,8.81,6.69,4.69,25.87,-3.49,2.37,10.70,-81.75,182.37,-87.69,39.50,21.06,-32.06,-11.57,-2.16,2.50,27.37,-11.81,12.44,6.69,4.69,25.87,-12.33,-0.01,8.66,82.25,22.37,-12.31,20.25,25.50,29.56,walk
44.26,-11.72,-1.56,-0.41,41.38,-11.38,15.13,6.69,4.69,25.87,-2.66,3.55,11.34,-102.44,258.69,-144.56,41.75,23.75,-25.87,-11.57,-0.03,-1.64,35.44,-13.75,18.06,6.69,4.69,25.87,-13.49,0.21,9.57,80.81,-2.87,-21.31,18.25,26.25,28.37,walk
44.29,-12.04,1.30,-3.94,13.31,-0.06,25.06,8.06,5.06,25.06,-10.26,-7.93,15.86,-73.31,489.87,-184.69,41.75,23.75,-25.87,-11.59,1.70,-4.76,-3.31,1.62,25.56,8.06,5.06,25.06,-15.59,1.78,0.50,48.69,-90.81,-36.94,18.25,26.25,28.37,walk
44.32,-9.71,-0.40,-4.20,-26.12,-3.37,23.25,8.06,5.06,25.06,-19.68,9.13,20.43,-32.25,590.37,-206.31,42.88,31.06,-11.06,-9.90,-1.52,-4.07,-27.25,-1.12,22.31,8.75,6.19,25.50,-17.17,6.42,-5.25,95.94,-183.00,-8.44,18.56,26.56,28.00,walk
44.35,-11.24,-4.96,-2.81,-7.94,-5.69,17.44,8.75,6.19,25.50,-17.54,4.95,18.65,-147.12,363.12,-211.00,42.88,31.06,-11.06,-11.57,-5.20,-2.27,9.75,-9.56,13.44,8.75,6.19,25.50,-17.22,1.49,-3.42,-116.50,-196.94,41.38,21.19,28.25,23.56,walk
44.38,-11.96,-1.96,-0.66,37.56,-7.25,6.31,11.00,3.56,24.69,-5.24,16.33,14.40,-7.00,-254.44,142.75,39.19,37.88,9.25,-11.78,-0.61,-0.39,49.50,-5.69,2.19,11.00,3.56,24.69,-16.83,-1.54,-3.05,-109.56,-149.44,45.38,21.19,28.25,23.56,walk
44.41,-10.96,1.92,-0.52,54.31,-9.81,-3.81,11.00,3.56,24.69,3.75,2.95,4.99,-70.81,-198.25,177.56,28.56,40.38,18.00,-10.28,2.17,-0.69,50.44,-14.13,-7.50,11.00,3.56,24.69,-11.99,-1.44,-2.16,-39.00,-144.94,54.81,24.69,24.25,21.06,walk
44.44,-8.15,1.76,-0.34,32.00,-23.31,-16.19,10.38,3.69,24.25,-7.13,1.78,10.59,47.88,-272.19,148.50,28.56,40.38,18.00,-6.62,0.65,0.19,22.44,-20.25,-19.56,10.38,3.69,24.25,-7.80,-2.22,-2.56,-33.19,-148.19,49.94,24.69,24.25,21.06,walk
44.47,-6.10,0.03,0.43,10.13,-9.75,-20.87,10.38,3.69,24.25,-8.65,1.68,9.76,27.00,-406.25,119.56,35.00,32.38,13.69,-5.78,-0.45,0.56,4.37,-3.94,-19.19,12.00,5.19,23.87,-7.69,-2.14,-3.05,-27.31,-98.37,46.38,28.69,18.87,19.87,walk
44.50,-5.69,-1.21,0.45,-11.19,8.25,-12.75,12.00,5.19,23.87,-5.67,-2.49,5.57,78.81,-394.06,100.50,35.00,32.38,13.69,-5.91,-1.13,0.17,-16.12,12.44,-9.81,12.00,5.19,23.87,-5.94,-0.22,-4.50,-51.94,-89.62,33.50,32.25,14.88,15.19,walk
44.53,-6.67,-1.14,0.17,-17.75,14.63,-7.37,13.06,3.00,22.56,-9.90,-1.25,9.67,120.56,-335.81,77.50,40.69,24.56,2.06,-7.02,-1.24,0.05,-11.94,13.19,-4.37,13.06,3.00,22.56,-4.43,-0.48,-5.13,-147.00,-102.50,-4.62,32.25,14.88,15.19,walk
44.57,-7.86,-2.34,0.22,-9.38,9.94,-1.94,13.06,3.00,22.56,-12.53,-1.23,11.89,131.81,-312.62,47.75,37.38,15.19,-7.19,-8.33,-2.47,0.43,-12.25,11.63,-0.81,13.06,3.00,22.56,-3.83,-3.46,-2.20,-33.81,-40.44,-4.06,32.69,11.56,13.19,walk
44.60,-9.07,-2.22,0.69,-17.37,7.06,0.31,13.56,3.75,23.00,-13.37,0.01,10.96,142.06,-260.56,43.13,37.38,15.19,-7.19,-9.14,-2.01,1.00,-18.50,2.31,1.94,13.56,3.75,23.00,-4.78,-1.48,-1.09,31.94,-0.13,-3.37,33.19,8.06,11.38,walk
44.63,-9.42,-1.46,1.28,-15.75,-2.31,3.00,13.56,3.75,23.00,-21.06,-5.72,12.50,160.56,-174.94,96.62,34.75,11.88,-16.56,-9.14,-1.31,1.49,-12.13,-9.31,5.56,13.06,3.50,22.56,-7.88,1.15,2.23,107.25,45.63,11.44,33.19,8.06,11.38,walk
44.66,-9.31,-1.51,1.48,-17.56,-5.31,5.56,13.06,3.50,22.56,-26.57,-4.53,3.79,149.75,-186.50,119.94,32.19,6.19,-23.06,-9.61,-1.56,1.56,-21.69,-2.06,5.00,13.06,3.50,22.56,-11.88,4.02,12.23,63.75,56.88,47.44,35.69,8.38,11.75,walk
44.69,-10.87,-2.44,1.45,-25.50,1.06,3.56,15.25,3.87,23.37,-34.56,-12.44,-20.22,-18.00,-93.25,83.87,32.19,6.19,-23.06,-11.21,-2.93,1.41,-21.31,0.69,2.87,15.25,3.87,23.37,-13.22,2.00,17.55,-113.12,6.69,13.81,35.69,7.37,11.19,walk
44.72,-12.03,-4.02,1.67,-5.00,-3.44,2.00,15.25,3.87,23.37,-21.01,-3.91,-7.86,-162.75,223.06,2.19,27.75,-1.00,-29.37,-12.90,-3.75,2.39,1.56,-5.87,-0.94,16.00,2.37,22.06,-8.37,-2.76,6.75,-94.37,-2.00,10.44,35.69,7.37,11.19,walk
44.75,-12.98,-2.01,3.11,6.75,-23.00,-16.31,16.00,2.37,22.06,-11.40,-22.54,22.67,-112.12,242.50,14.00,27.75,-1.00,-29.37,-12.10,-0.23,2.84,3.87,-34.19,-23.94,16.00,2.37,22.06,-7.73,4.27,-3.26,-129.00,24.87,41.06,35.75,5.25,11.50,walk
44.78,-11.90,0.19,0.90,-0.88,-33.25,-28.56,16.00,2.69,21.37,-37.59,5.37,15.36,-148.00,162.50,-97.81,27.69,1.00,-28.25,-12.09,0.14,-0.39,-2.19,-24.94,-26.44,16.00,2.69,21.37,-23.38,-10.61,4.32,-230.31,63.94,-21.06,35.75,5.25,11.50,walk
44.81,-11.40,-1.94,-4.05,-0.31,0.69,-23.25,16.00,2.69,21.37,-8.86,-4.10,10.33,-74.37,53.94,-52.88,33.25,3.06,-21.75,-10.72,-2.02,-4.55,1.62,7.31,-22.44,16.00,2.69,21.37,-0.55,-5.44,-10.93,-86.81,-94.00,36.88,35.06,2.69,12.00,walk
44.85,-9.47,-0.75,-3.95,0.31,-7.81,-17.81,16.75,2.69,21.87,-7.56,-0.83,8.92,-22.25,18.44,-30.81,33.25,3.06,-21.75,-9.48,-0.37,-3.09,-11.50,-14.94,-6.44,16.75,2.69,21.87,-14.28,7.97,-5.78,106.62,128.75,4.44,36.19,-0.56,12.38,walk
44.88,-9.53,1.41,-0.27,-18.69,-11.31,-1.69,16.75,2.69,21.87,-5.55,0.44,8.49,-3.44,-3.81,-12.06,35.19,7.19,-18.69,-9.60,1.50,-0.09,-31.31,5.12,-1.62,17.87,3.75,21.87,-10.07,3.65,-0.61,0.31,71.31,14.31,36.19,-0.56,12.38,walk
44.91,-10.06,-0.14,-0.87,-37.25,17.81,-6.00,17.87,3.75,21.87,-4.83,0.72,8.41,-3.25,-3.31,-5.12,34.69,8.38,-18.00,-10.41,-1.71,-1.60,-35.56,18.00,-4.75,17.87,3.75,21.87,-8.65,2.00,-0.30,-48.56,109.31,8.31,34.06,0.37,13.38,walk
44.94,-10.65,-3.10,-1.09,-30.06,8.44,6.37,18.56,2.56,19.00,-5.15,1.00,8.10,-1.44,8.94,-4.44,34.69,8.38,-18.00,-10.10,-3.04,-0.72,-29.25,0.75,15.00,18.56,2.56,19.00,-9.92,-0.71,-0.52,-40.13,111.06,4.75,34.06,0.37,13.38,walk
44.97,-9.24,-2.70,-0.35,-29.50,-10.38,25.94,18.56,2.56,19.00,-4.92,0.69,8.27,1.19,6.69,-6.00,35.06,8.75,-18.75,-7.44,-1.66,0.04,-27.87,-12.38,26.06,19.87,1.75,19.56,-9.15,-1.14,0.94,31.50,104.37,14.25,33.69,-0.19,15.75,walk
45.01,-5.78,-0.82,0.33,-20.62,-3.50,18.12,19.87,1.75,19.56,-4.83,0.56,8.45,2.69,9.94,-7.19,35.06,8.75,-18.75,-5.43,-1.11,0.28,-13.50,2.00,13.44,19.87,1.75,19.56,-8.89,-0.34,0.22,80.12,99.19,5.19,33.38,-1.06,18.19,walk
45.03,-5.61,-1.25,0.26,-4.69,13.13,8.44,19.50,0.69,18.75,-5.32,0.44,8.05,7.75,13.19,-5.37,34.25,9.19,-18.00,-6.56,-1.28,0.46,-3.94,18.00,8.50,19.50,0.69,18.75,-9.29,0.77,0.62,76.19,86.69,-9.19,33.38,-1.06,18.19,walk
45.07,-7.65,-0.65,0.37,-4.94,19.94,10.38,19.50,0.69,18.75,-5.15,0.46,8.32,5.25,21.94,-4.81,33.88,9.19,-18.50,-8.03,-0.29,0.39,-4.31,17.00,10.00,19.50,1.25,20.06,-9.57,-0.19,0.96,37.31,84.25,-4.00,30.75,-0.25,21.37,walk
45.10,-7.99,0.20,0.73,-5.00,10.69,7.31,19.50,1.25,20.06,-5.44,0.42,8.14,8.00,27.06,-7.62,33.88,9.19,-18.50,-8.06,0.19,0.72,-1.50,12.69,2.75,19.50,1.25,20.06,-9.64,0.55,1.10,19.12,84.00,4.62,29.56,-0.25,23.75,walk
45.13,-8.05,-0.42,0.97,3.69,12.44,0.00,19.50,1.25,20.06,-5.30,0.54,8.35,5.44,24.31,-8.31,34.25,8.88,-18.06,-8.11,-1.01,1.24,11.56,15.63,-3.37,20.56,-0.50,20.87,-9.61,-1.35,0.82,14.25,81.62,9.44,29.56,-0.25,23.75,walk
45.17,-8.39,-1.12,1.35,12.63,17.75,-4.87,20.56,-0.50,20.87,-5.39,0.59,8.60,15.56,37.63,-13.63,35.38,8.50,-15.69,-8.78,-1.07,1.36,13.69,17.50,-5.31,20.56,-0.50,20.87,-10.07,-1.03,1.43,55.56,74.81,-1.56,26.69,0.69,26.06,walk
45.20,-10.02,-1.12,1.10,20.37,17.12,-3.25,21.00,0.19,20.87,-5.02,2.14,8.74,10.63,48.50,-22.44,35.38,8.50,-15.69,-10.38,-1.20,0.84,27.56,10.06,0.19,21.00,0.19,20.87,-10.10,1.13,3.15,95.94,60.81,-10.63,26.69,1.75,27.19,walk
45.23,-11.17,-1.20,0.66,26.94,6.12,0.31,21.25,2.06,21.69,-5.27,1.00,8.68,-32.00,101.75,-46.25,35.06,8.88,-16.06,-11.32,-0.93,1.01,26.69,-6.37,-1.44,21.25,2.06,21.69,-11.72,0.11,2.71,109.00,46.00,-9.56,26.69,1.75,27.19,walk
45.26,-11.65,-0.45,2.33,29.37,-12.25,5.06,21.25,2.06,21.69,-4.68,1.46,9.19,-72.94,152.31,-73.44,36.19,10.38,-13.25,-11.79,-0.47,2.79,31.31,-16.75,11.00,21.25,2.06,21.69,-11.26,-1.58,6.38,106.31,25.81,-6.37,25.56,4.06,28.37,walk
45.29,-11.40,-1.85,3.27,37.75,-22.19,16.75,22.06,2.06,21.50,-3.35,2.19,10.58,-100.50,239.12,-134.94,36.19,10.38,-13.25,-11.60,-1.81,1.77,43.69,-17.37,15.81,22.06,2.06,21.50,-13.34,0.21,9.90,98.69,12.19,-23.37,25.56,4.06,28.37,walk
45.32,-11.69,-1.59,0.22,46.75,-15.31,14.69,22.06,2.06,21.50,-4.32,1.36,12.75,-113.19,401.37,-192.69,36.88,12.56,-8.75,-12.25,0.04,-2.60,41.50,-8.81,20.44,22.69,2.06,19.56,-15.81,-0.59,8.10,110.87,-62.00,-27.37,25.56,6.25,29.06,walk
45.35,-12.81,1.28,-4.94,6.69,3.56,30.69,22.69,2.06,19.56,-13.74,3.65,21.41,-30.87,559.37,-147.37,36.88,12.56,-8.75,-13.16,0.94,-6.12,-7.87,-5.75,29.19,22.69,2.06,19.56,-16.25,6.37,-6.88,67.00,-164.37,-20.50,25.87,9.88,26.25,walk
45.38,-9.41,-1.46,-4.19,-11.44,1.25,24.19,23.75,0.88,20.75,-16.81,6.67,21.74,-61.50,587.44,-165.31,35.06,18.50,3.37,-10.30,-1.87,-3.90,-22.87,-28.44,17.87,23.75,0.88,20.75,-18.00,4.04,-2.49,36.06,-193.25,17.12,25.87,9.88,26.25,walk
45.41,-10.46,-4.10,-2.10,-8.88,-33.00,14.63,23.75,0.88,20.75,-30.88,2.26,33.74,-49.13,261.87,-111.62,27.69,22.25,19.06,-10.53,-3.76,-0.83,24.69,-14.44,4.87,23.75,0.88,20.75,-16.18,-0.88,-3.22,-129.12,-155.81,32.94,29.87,12.06,22.25,walk
45.44,-10.97,-1.03,0.02,42.75,-0.25,-2.56,23.75,1.37,19.87,3.86,10.74,6.78,-62.13,-272.19,141.75,27.69,22.25,19.06,-10.84,-0.24,-0.10,49.25,-2.69,-3.62,23.75,1.37,19.87,-13.54,-2.49,-2.21,-90.50,-145.12,38.63,29.87,12.06,22.25,walk
45.47,-10.27,0.86,-0.72,49.44,-11.13,-7.31,23.75,1.37,19.87,-0.37,-3.83,7.69,47.81,-256.00,151.81,24.00,23.75,23.69,-9.75,1.12,-0.81,41.06,-15.25,-11.38,24.69,1.75,19.06,-9.93,-2.20,-2.11,-34.56,-145.31,46.25,33.19,10.38,17.87,walk
45.51,-6.49,0.36,-0.10,21.75,-17.19,-20.37,24.69,1.75,19.06,-6.13,2.25,9.45,75.31,-357.87,114.81,24.00,23.75,23.69,-5.91,-0.03,0.21,15.38,-11.75,-22.81,24.69,1.75,19.06,-7.82,-2.76,-2.93,-24.75,-129.00,46.13,36.00,7.87,13.56,walk
45.54,-5.45,-0.91,0.82,11.13,0.44,-20.75,25.06,1.87,18.00,-5.37,-3.08,7.34,80.37,-389.19,92.19,33.25,20.50,16.69,-5.48,-1.08,0.87,8.75,5.06,-17.81,25.06,1.87,18.00,-6.78,-0.39,-3.88,-23.50,-112.50,39.31,36.00,7.87,13.56,walk
45.57,-6.04,-1.04,0.67,-2.94,11.75,-6.44,25.06,1.87,18.00,-8.18,-2.03,9.34,151.69,-357.50,61.94,41.06,15.56,2.19,-6.45,-1.00,0.54,-4.12,13.50,-3.44,26.25,3.37,18.00,-4.26,-0.72,-4.85,-68.94,-112.19,10.69,38.19,6.06,8.88,walk
45.60,-7.48,-1.38,0.43,-5.75,15.13,-1.44,26.25,3.37,18.00,-10.72,-0.79,10.95,154.00,-332.62,50.31,41.06,15.56,2.19,-8.12,-2.12,0.32,-10.56,14.06,0.44,26.25,3.37,18.00,-3.43,-2.67,-3.86,-120.19,-89.81,-12.44,38.25,4.25,5.00,walk
45.63,-8.58,-2.67,0.33,-11.94,12.44,1.06,26.25,3.37,18.00,-12.83,0.74,12.59,154.56,-274.69,80.62,42.06,11.19,-16.06,-8.65,-2.52,0.93,-11.94,6.87,3.00,25.25,3.87,17.56,-4.01,-1.03,-2.31,-7.69,-26.37,-7.37,38.25,4.25,5.00,walk
45.66,-8.67,-2.29,1.19,-10.44,6.12,3.19,25.25,3.87,17.56,-13.38,-2.33,11.46,125.06,-213.62,115.44,34.75,5.00,-28.69,-8.77,-2.09,1.42,-5.50,3.25,3.31,25.25,3.87,17.56,-6.38,2.55,0.18,70.19,12.00,-0.13,40.19,5.00,2.25,walk
45.69,-9.24,-1.74,1.77,-3.87,1.25,3.94,26.75,3.87,19.06,-28.23,-4.53,14.62,83.50,-183.25,136.81,34.75,5.00,-28.69,-9.53,-1.59,1.72,-2.44,-1.31,4.69,26.75,3.87,19.06,-11.18,2.44,9.22,39.38,56.50,26.62,40.19,5.00,2.25,walk
45.72,-10.51,-1.23,1.41,-13.81,-4.69,3.75,26.75,3.87,19.06,-36.70,-11.22,-11.24,-33.63,-224.06,107.87,27.75,-1.50,-33.75,-10.74,-1.29,1.31,-23.44,-7.50,4.12,26.75,3.50,19.06,-12.36,1.83,21.77,-102.75,20.37,28.12,40.25,4.56,1.19,walk
45.75,-10.59,-2.55,1.26,-29.69,-10.63,4.94,26.75,3.50,19.06,-12.35,-16.02,-21.86,11.19,51.94,48.88,27.75,-1.50,-33.75,-10.68,-3.15,1.39,-22.25,-10.00,4.31,26.75,3.50,19.06,-10.75,-5.05,7.90,-169.94,-1.56,-12.19,40.69,4.00,3.25,walk
45.78,-12.92,-3.58,3.24,3.56,-15.63,-6.75,27.06,2.69,19.06,-23.58,-2.07,7.16,-93.25,217.62,-3.25,18.37,-4.56,-38.25,-12.76,-2.71,3.70,9.50,-27.31,-15.06,27.06,2.69,19.06,-0.14,-2.53,-1.30,-40.56,-16.06,29.50,40.69,4.00,3.25,walk
45.81,-12.05,-1.52,4.19,6.62,-45.31,-21.12,27.06,2.69,19.06,12.17,-4.12,11.81,-52.19,172.00,-44.94,18.06,-4.87,-38.56,-10.59,-0.02,4.64,-16.12,-61.00,-20.44,27.06,2.69,19.06,-3.34,-0.57,-5.32,-60.56,106.50,9.88,38.88,3.19,2.87,walk
45.84,-10.45,0.43,2.93,-31.44,-47.25,-16.06,27.06,3.87,16.75,1.76,-7.93,11.80,-184.69,136.25,-80.62,18.06,-4.87,-38.56,-10.53,-1.08,-2.29,-55.00,-5.69,-15.69,27.06,3.87,16.75,-11.86,-5.32,8.03,7.50,24.00,6.87,38.88,3.19,2.87,walk
45.87,-10.34,-2.08,-4.04,-27.00,36.63,-19.44,27.06,3.87,16.75,-13.20,-6.74,14.01,-40.00,59.31,-36.88,26.87,-2.25,-35.19,-11.04,-2.49,-5.85,4.19,37.69,-20.00,27.50,3.06,16.50,0.34,-2.54,-21.59,-13.25,-82.94,42.38,39.25,2.06,3.69,walk
45.90,-10.88,-1.53,-6.77,27.25,-6.69,-20.81,27.50,3.06,16.50,-7.43,0.78,8.67,-17.81,15.38,-19.44,26.87,-2.25,-35.19,-11.99,2.61,-1.86,18.56,-24.37,-16.25,27.50,3.06,16.50,-16.18,10.75,-6.12,114.19,135.37,-3.62,39.25,1.00,3.69,walk
45.94,-11.82,3.33,1.33,-10.50,-30.31,-5.44,27.19,3.06,16.06,-5.62,0.42,8.69,-6.37,13.25,-11.81,29.19,3.25,-32.88,-11.30,2.79,2.06,-21.75,-22.37,-3.62,27.19,3.06,16.06,-10.18,0.47,-1.94,-18.37,65.87,15.56,39.25,1.00,3.69,walk
45.96,-10.48,0.90,1.81,-50.06,3.94,-8.06,27.19,3.06,16.06,-4.94,-0.18,8.85,-4.19,11.56,-7.75,29.56,4.25,-31.69,-10.12,-0.34,0.94,-54.13,10.94,-5.81,27.19,3.06,16.06,-10.47,0.97,-0.48,-35.19,111.75,4.62,40.25,1.25,6.37,walk
45.99,-9.88,-3.16,-1.70,-31.44,13.13,8.00,27.87,4.56,15.19,-5.23,0.45,8.45,-2.56,15.75,-6.75,29.56,4.25,-31.69,-9.64,-3.28,-1.58,-24.94,12.00,14.13,27.87,4.56,15.19,-9.75,0.33,-0.43,-10.88,110.12,12.19,40.25,1.25,6.37,walk
46.02,-9.14,-3.14,-1.10,-25.87,2.44,18.50,27.87,4.56,15.19,-5.34,0.68,8.13,1.56,12.94,-6.31,30.37,4.56,-31.25,-7.92,-2.59,0.01,-21.12,-2.31,17.19,27.69,3.00,16.06,-9.65,-0.31,0.73,21.56,97.50,10.25,38.19,0.88,8.38,walk
46.06,-6.12,-1.72,1.14,-0.69,-1.25,11.25,27.69,3.00,16.06,-5.24,0.52,8.35,5.06,22.87,-7.50,30.37,4.56,-31.25,-5.77,-1.69,1.09,6.81,1.00,8.06,27.69,3.00,16.06,-9.22,-1.74,0.38,69.06,100.56,5.75,37.06,0.88,12.25,walk
46.08,-5.60,-1.62,0.87,9.75,5.44,5.62,27.69,3.00,16.06,-5.60,0.69,7.81,2.12,19.94,-8.38,31.87,4.50,-30.87,-5.53,-1.57,0.83,9.06,16.69,5.37,28.50,2.56,16.06,-9.26,0.46,0.86,70.12,91.69,-3.94,37.06,0.88,12.25,walk
46.11,-5.98,-1.01,0.34,10.50,23.25,5.50,28.50,2.56,16.06,-5.65,0.54,8.00,3.19,21.75,-8.19,31.50,4.19,-30.06,-7.08,-0.15,0.52,11.31,22.69,4.37,28.50,2.56,16.06,-8.29,-1.13,1.77,84.69,73.94,-3.44,37.06,1.69,15.19,walk
46.14,-7.33,0.10,0.64,12.63,21.94,0.13,28.87,2.56,15.69,-5.15,0.99,8.07,10.44,21.75,-10.44,31.50,4.19,-30.06,-7.45,0.36,0.70,11.88,23.19,-2.00,28.87,2.56,15.69,-9.66,1.16,1.23,43.56,77.69,-3.37,37.06,1.69,15.19,walk
46.17,-7.99,-0.04,1.11,14.75,25.81,-4.81,28.87,2.56,15.69,-5.39,0.52,8.30,11.69,16.06,-11.63,31.87,5.25,-29.00,-8.17,-0.26,1.41,18.94,25.25,-5.62,28.50,3.37,16.50,-9.37,0.06,0.18,18.12,67.12,5.06,34.88,2.37,17.06,walk
46.21,-9.07,-0.65,1.18,20.56,17.87,-7.75,28.50,3.37,16.50,-5.60,0.46,8.35,18.19,23.37,-14.69,31.87,5.25,-29.00,-9.61,-0.56,0.92,17.87,16.19,-8.38,28.50,3.37,16.50,-9.97,-0.27,0.62,35.31,73.19,0.50,34.88,2.37,17.06,walk
46.23,-9.95,-0.59,0.99,16.50,16.31,-7.56,28.50,3.37,16.50,-5.53,0.40,8.55,24.81,39.13,-15.94,32.69,4.87,-28.00,-10.50,-0.71,1.55,18.75,15.50,-5.31,28.06,3.37,16.87,-10.15,-1.15,2.14,71.81,65.19,-5.00,34.56,3.50,19.19,walk
46.26,-10.86,-0.88,1.47,29.87,6.19,0.75,28.06,3.37,16.87,-5.12,1.09,9.23,21.69,62.69,-18.81,33.00,4.87,-29.19,-11.08,-0.60,0.74,27.12,5.00,-0.06,28.06,3.37,16.87,-10.89,1.09,2.19,97.19,53.56,-17.56,33.00,3.50,20.19,walk
46.29,-11.03,-0.31,0.87,17.87,3.81,-1.81,27.69,4.50,16.87,-5.31,1.41,9.25,-5.87,112.62,-30.69,33.00,4.87,-29.19,-11.01,-0.21,1.26,15.75,2.69,-0.25,27.69,4.50,16.87,-11.71,0.92,2.69,81.69,26.12,-10.94,33.00,3.50,20.19,walk
46.33,-11.73,-1.05,2.72,11.31,0.25,8.13,27.69,4.50,16.87,-4.05,2.99,9.39,-58.13,172.94,-66.81,33.00,4.87,-27.56,-12.10,-2.85,3.34,11.69,-8.81,12.19,27.56,6.37,18.06,-11.55,-2.53,7.69,79.62,20.50,-15.13,30.75,6.37,22.25,walk
46.35,-10.93,-2.92,3.28,28.06,-25.75,12.31,27.56,6.37,18.06,-4.12,2.20,10.92,-95.69,278.31,-134.00,33.00,4.87,-27.56,-10.71,-2.17,2.55,42.44,-22.62,10.06,27.56,6.37,18.06,-12.96,-1.04,7.26,96.87,8.81,-35.69,30.75,6.37,22.25,walk
46.38,-10.35,-0.32,0.39,52.75,-16.87,9.88,28.50,3.75,18.87,-8.60,0.15,13.89,-52.31,435.44,-147.50,36.25,6.75,-21.75,-10.24,0.52,-0.76,50.13,0.62,18.12,28.50,3.75,18.87,-14.57,1.97,4.37,58.75,-116.69,-39.81,31.19,7.50,21.87,walk
46.42,-10.97,1.25,-7.38,28.00,22.50,16.81,28.50,3.75,18.87,-13.93,-1.70,19.13,54.94,548.37,-118.44,39.69,12.00,-12.00,-10.97,1.25,-7.38,6.56,24.00,14.31,28.50,3.75,18.87,-14.71,7.16,-5.15,69.69,-160.69,-19.81,30.25,10.69,20.75,walk
46.44,-10.28,-0.43,-6.20,-14.63,17.56,15.19,27.75,5.19,16.50,-15.40,7.38,22.26,-6.75,444.62,-195.25,39.69,12.00,-12.00,-10.48,-2.70,-3.95,-32.88,-8.19,21.69,27.75,5.19,16.50,-17.11,4.83,-2.03,-1.06,-193.81,21.69,30.25,10.69,20.75,walk
46.48,-11.26,-3.25,0.17,-15.81,-22.31,13.44,27.75,5.19,16.50,-23.72,12.90,30.05,-12.56,-103.81,-17.37,39.69,15.69,4.00,-11.31,-2.20,0.96,-5.81,-17.50,5.00,28.50,4.06,18.06,-15.08,1.45,-3.70,-136.37,-140.12,39.44,32.06,12.25,16.75,walk
46.51,-11.52,-0.22,1.40,15.69,-5.00,-7.37,28.50,4.06,18.06,3.78,5.75,5.59,-59.63,-285.69,80.94,39.69,15.69,4.00,-11.52,-0.22,1.40,26.37,-5.81,-8.94,28.50,4.06,18.06,-13.23,-1.21,-1.74,-104.50,-139.37,40.50,32.06,12.25,16.75,walk
46.53,-10.86,1.24,-0.60,32.06,-11.50,-9.50,28.50,4.06,18.06,-4.17,3.43,8.45,-22.31,-261.37,99.87,33.38,20.06,11.50,-7.91,1.13,-0.92,16.56,-26.19,-11.50,29.56,3.75,17.69,-10.52,-0.85,-1.71,-79.75,-135.44,45.31,34.25,11.56,12.38,walk
46.56,-6.71,0.37,-0.28,-6.12,-20.44,-16.00,29.56,3.75,17.69,-8.16,4.13,8.76,-1.37,-350.87,116.62,32.56,15.75,2.56,-6.71,0.37,-0.28,-11.13,-16.19,-17.37,29.56,3.75,17.69,-8.28,-1.72,-2.49,-60.94,-126.56,54.13,35.75,9.38,10.38,walk
46.59,-6.17,-1.10,0.95,-13.31,-11.56,-17.44,29.56,5.56,17.19,-7.51,2.48,7.02,15.13,-395.00,126.81,32.56,15.75,2.56,-6.26,-1.44,1.03,-13.69,-2.19,-14.00,29.56,5.56,17.19,-6.98,-0.43,-4.07,-77.31,-86.87,46.00,35.75,9.38,10.38,walk
46.63,-6.83,-1.24,0.36,-17.56,2.12,-7.69,29.56,5.56,17.19,-9.60,-0.98,8.60,66.06,-361.37,99.12,29.19,14.00,-4.75,-6.83,-1.24,0.36,-20.06,3.06,-4.12,30.37,4.50,17.19,-5.90,0.33,-4.46,-116.56,-102.06,16.62,36.50,7.19,7.69,walk
46.65,-7.38,-1.75,-0.10,-23.56,6.31,-0.44,30.37,4.50,17.19,-12.41,-0.40,10.03,122.25,-335.00,43.38,29.19,14.00,-4.75,-7.38,-1.75,-0.10,-25.50,7.62,-0.31,30.37,4.50,17.19,-4.75,-3.25,-3.05,-134.00,-98.25,-4.06,37.56,5.37,5.37,walk
46.69,-8.13,-2.56,0.78,-27.06,8.94,0.56,29.56,3.37,16.50,-13.57,2.13,10.50,145.62,-285.56,12.06,24.50,13.19,-9.25,-8.24,-2.56,0.85,-25.56,8.88,1.62,29.56,3.37,16.50,-4.45,-3.93,-1.35,-24.81,-40.44,3.44,37.56,5.37,5.37,walk
46.72,-8.35,-2.45,0.95,-19.31,7.75,4.87,29.56,3.37,16.50,-13.89,-1.13,9.24,148.81,-198.62,54.56,21.75,13.25,-13.06,-8.47,-2.33,1.10,-16.81,6.44,6.50,29.56,3.37,16.50,-6.35,-1.65,-0.26,68.25,-7.69,4.62,37.88,5.37,3.69,walk
46.74,-9.30,-1.80,1.26,-14.69,4.87,8.13,29.56,4.50,15.69,-23.55,-5.81,12.78,168.00,-113.44,120.06,21.75,13.25,-13.06,-9.59,-1.37,1.28,-11.13,-0.56,9.94,29.56,4.50,15.69,-8.15,1.04,3.19,93.44,16.62,10.13,37.88,5.37,3.69,walk
46.78,-9.82,-1.44,1.59,-18.25,-2.44,8.44,29.56,4.50,15.69,-28.92,-0.65,3.70,79.62,-199.00,138.00,26.37,14.06,-21.19,-10.17,-1.51,1.71,-23.94,-1.69,6.37,29.19,4.06,16.87,-12.58,9.79,13.54,22.31,38.88,72.50,38.56,5.87,1.25,walk
46.81,-11.11,-1.84,1.63,-27.19,-7.69,0.62,29.19,4.06,16.87,-18.06,-15.44,-16.43,-75.06,20.56,96.12,28.00,4.50,-29.56,-10.64,-2.47,2.02,-25.25,-10.88,0.56,29.19,4.06,16.87,-11.26,-0.95,12.14,-145.87,0.94,14.00,39.00,4.06,2.75,walk
46.85,-10.72,-2.54,2.37,-14.38,-13.81,-0.19,30.00,3.00,17.69,-8.36,-7.13,-1.51,-133.31,277.00,50.75,28.00,4.50,-29.56,-10.99,-2.53,2.76,-7.69,-15.38,-3.87,30.00,3.00,17.69,-5.05,-3.93,3.00,-178.06,-10.75,1.75,39.00,4.06,2.75,walk
46.88,-11.51,-0.75,3.98,-3.44,-29.56,-16.75,30.00,3.00,17.69,-13.75,-21.20,19.06,-49.75,262.87,-42.81,26.00,3.06,-33.25,-11.35,-0.55,3.87,-9.25,-33.69,-22.06,30.37,2.25,17.69,-9.62,-0.84,-2.24,-86.69,110.19,-4.12,40.00,2.87,3.69,walk
46.91,-12.78,-1.42,1.33,-30.50,-11.25,-25.50,30.37,2.25,17.69,3.15,-1.50,9.07,-121.75,54.75,-51.69,26.00,3.06,-33.25,-13.13,-1.90,-0.41,-38.31,3.00,-26.62,30.37,2.25,17.69,-26.87,-3.22,10.47,-191.62,38.06,-8.94,40.00,2.87,3.69,walk
46.93,-13.12,-2.32,-2.03,-41.25,15.00,-26.50,31.50,2.25,16.06,-10.06,-10.83,11.80,-26.19,55.25,-39.00,33.25,4.56,-25.69,-10.81,-1.96,-5.44,-31.50,20.31,-22.37,31.50,2.25,16.06,4.97,-5.02,-16.68,-26.31,-117.25,65.56,38.56,1.50,6.00,walk
46.97,-8.81,0.39,-4.60,13.81,-12.94,-12.94,31.50,2.25,16.06,-6.05,1.86,8.79,-6.37,21.00,-22.56,37.25,9.00,-23.37,-9.26,1.24,-3.09,6.87,-18.62,-9.63,31.50,2.25,16.06,-15.16,9.99,-4.42,138.37,143.69,-0.37,40.38,0.50,4.75,walk
47.00,-10.05,1.94,0.49,-18.87,-13.19,-6.50,32.19,4.50,17.00,-5.39,0.26,8.22,-6.19,16.62,-9.69,37.25,9.00,-23.37,-10.05,1.94,0.49,-31.12,-4.69,-6.25,32.19,4.50,17.00,-10.72,4.21,-1.03,14.81,65.44,16.31,40.38,0.50,4.75,walk
47.03,-10.84,-0.32,1.80,-53.88,19.12,-6.19,32.19,4.50,17.00,-4.97,0.22,8.41,2.37,12.50,-5.50,37.50,10.56,-22.19,-10.70,-1.78,-0.59,-55.00,23.50,-5.31,31.87,3.00,15.69,-9.48,1.54,-0.27,-36.31,104.44,1.81,40.00,-0.19,6.87,walk
47.06,-10.68,-2.77,-2.01,-23.12,16.19,2.31,31.87,3.00,15.69,-5.19,0.90,8.40,-4.06,15.38,-4.44,37.50,10.56,-22.19,-10.51,-3.11,-2.11,-8.06,10.50,8.75,31.87,3.00,15.69,-9.73,-0.77,-0.48,-34.56,106.69,4.75,40.00,-0.19,6.87,walk
47.09,-9.27,-3.19,-1.61,-1.56,-2.06,17.62,32.56,2.87,17.00,-5.35,0.80,8.21,-4.06,18.00,-6.56,36.75,11.00,-20.19,-7.73,-2.58,-0.50,-5.56,-7.19,17.25,32.56,2.87,17.00,-9.25,-0.48,0.89,35.31,99.31,14.44,40.75,-0.19,10.38,walk
47.12,-6.25,-1.49,0.98,-10.06,-6.12,9.81,32.56,2.87,17.00,-5.34,0.60,8.24,1.81,16.50,-8.25,37.50,11.75,-21.50,-6.01,-1.27,1.22,-8.88,-2.25,5.00,32.56,2.87,17.00,-9.21,-0.49,0.34,93.37,100.31,4.56,39.25,-1.56,13.19,walk
47.15,-5.87,-1.10,1.30,-5.12,7.50,0.37,32.56,2.50,17.00,-5.49,0.48,8.10,2.75,23.56,-6.81,37.50,11.75,-21.50,-5.88,-0.87,1.29,-3.12,12.19,0.50,32.56,2.50,17.00,-9.34,0.42,0.36,96.81,93.44,-8.94,39.25,-1.56,13.19,walk
47.18,-7.12,-0.29,0.65,5.62,22.19,2.56,32.56,2.50,17.00,-5.53,0.37,8.13,8.13,18.19,-7.06,37.75,10.69,-18.69,-7.49,-0.17,0.46,10.63,24.62,3.06,32.19,2.19,16.56,-9.79,0.56,1.04,77.94,76.81,-13.69,38.56,-0.50,17.50,walk
47.21,-7.86,-0.15,0.28,15.88,20.50,1.81,32.19,2.19,16.56,-5.30,0.68,8.10,11.75,11.50,-10.13,37.75,10.69,-18.69,-7.95,-0.22,0.26,17.25,18.44,0.13,32.19,2.19,16.56,-8.96,1.19,0.94,34.44,79.00,-2.12,38.56,-0.50,17.50,walk
47.24,-8.05,-0.38,0.34,17.19,18.00,-1.50,31.50,2.19,18.50,-5.14,-0.25,8.56,12.94,26.44,-11.38,39.38,12.19,-20.37,-8.36,-0.79,1.02,12.50,18.12,-5.19,31.50,2.19,18.50,-9.64,-0.24,0.65,12.56,80.44,3.31,36.75,0.88,18.69,walk
47.28,-8.63,-0.88,1.23,12.75,17.12,-4.37,31.50,2.19,18.50,-5.60,0.43,8.34,18.69,30.06,-12.38,38.88,12.19,-19.69,-9.04,-0.68,0.93,14.25,17.69,-3.87,33.00,3.25,17.25,-9.59,-1.37,1.22,29.12,73.56,-2.44,35.25,1.69,21.37,walk
47.31,-9.43,-0.57,0.83,17.44,18.06,-3.06,33.00,3.25,17.25,-5.53,1.35,8.49,19.81,39.25,-16.31,38.88,12.19,-19.69,-9.61,-0.63,0.93,20.69,16.12,-1.50,33.00,3.25,17.25,-10.12,0.94,1.09,79.12,68.31,-11.69,35.25,1.69,21.37,walk
47.34,-10.46,-1.29,0.55,26.50,12.63,4.12,31.50,3.25,19.25,-5.44,1.03,8.53,4.19,69.81,-27.62,39.25,11.75,-18.06,-11.26,-1.32,0.35,25.19,9.50,5.37,31.50,3.25,19.25,-10.71,0.93,2.40,87.56,55.56,-11.81,34.19,2.06,23.00,walk
47.37,-11.53,-1.19,1.10,13.38,1.50,4.44,31.50,3.25,19.25,-5.01,1.38,8.78,-23.87,113.25,-40.75,39.38,11.75,-18.19,-11.65,-1.26,1.65,9.38,-0.94,4.19,31.50,3.25,19.25,-10.83,-1.00,3.53,84.75,40.75,-11.50,33.75,3.50,24.50,walk
47.40,-11.71,-2.07,3.29,9.81,-7.56,9.44,31.87,3.25,19.25,-4.03,2.68,9.81,-67.62,163.87,-76.56,39.38,11.75,-18.19,-11.40,-2.37,3.56,12.13,-12.00,14.25,31.87,3.25,19.25,-12.30,-0.63,6.95,84.12,22.75,-13.38,33.75,3.50,24.50,walk
47.43,-11.69,-1.07,2.18,32.06,-8.00,19.44,31.87,3.25,19.25,-4.24,2.74,10.69,-100.19,275.62,-152.00,40.69,13.69,-14.56,-11.69,-1.07,2.18,44.31,-3.37,19.94,32.25,3.25,18.87,-14.22,-0.33,5.68,93.37,0.19,-27.81,31.69,5.69,26.06,walk
47.46,-12.54,0.34,-0.11,55.69,8.19,23.44,32.25,3.25,18.87,-9.79,-2.31,13.83,-57.75,427.19,-156.81,40.69,13.69,-14.56,-11.57,1.17,-5.41,48.13,9.38,23.19,32.25,3.25,18.87,-14.57,0.98,4.08,88.94,-87.37,-42.25,31.69,5.69,26.06,walk
47.49,-9.38,-1.00,-6.81,6.44,3.56,16.94,32.25,2.87,18.37,-18.17,6.91,18.88,40.00,537.12,-140.06,43.69,17.00,-6.25,-9.38,-1.00,-6.81,-14.81,4.56,15.13,32.25,2.87,18.37,-14.95,4.61,-4.78,57.56,-163.81,-18.00,33.50,7.87,25.56,walk
47.52,-9.30,-3.46,-4.93,-13.81,-10.19,14.69,32.25,2.87,18.37,-4.54,14.94,9.94,-58.25,432.62,-201.37,40.00,22.19,9.00,-10.02,-4.83,-1.92,-2.56,-12.69,13.56,32.25,2.87,18.37,-16.60,3.14,-2.61,26.75,-187.12,28.87,33.88,10.06,20.56,walk
47.55,-10.35,-4.04,-1.00,19.50,-3.62,8.44,32.25,2.50,19.69,-22.97,12.21,30.09,47.19,-154.37,4.94,40.00,22.19,9.00,-10.77,-2.84,-0.31,28.87,1.19,5.00,32.25,2.50,19.69,-15.40,0.45,-3.05,-112.87,-144.94,35.63,33.88,10.06,20.56,walk
47.58,-11.52,0.48,0.20,37.63,-5.31,-1.06,32.25,2.50,19.69,3.91,5.85,4.83,-44.81,-241.19,94.31,31.06,24.50,22.19,-11.51,1.02,-0.04,37.63,-5.31,-1.06,32.69,1.75,19.19,-12.29,-1.53,-1.48,-107.25,-135.37,40.38,37.19,10.06,16.75,walk
47.61,-9.76,1.17,-1.74,22.56,-19.37,-9.69,32.69,1.75,19.19,-3.21,2.35,8.17,4.62,-225.00,121.50,31.06,24.50,22.19,-8.79,0.75,-1.62,15.25,-22.62,-14.31,32.69,1.75,19.19,-9.36,-1.08,-1.96,-59.00,-139.06,43.75,37.19,10.06,16.75,walk
47.64,-7.38,-0.22,-0.88,8.44,-21.69,-17.81,33.88,1.75,19.19,-6.52,3.19,8.57,15.69,-320.12,134.37,33.88,23.00,13.75,-7.01,-0.75,-0.32,-3.56,-16.37,-17.81,33.88,1.75,19.19,-7.91,-1.35,-2.64,-31.75,-125.31,49.63,41.06,6.87,11.69,walk
47.67,-6.66,-1.45,0.64,-8.75,-13.25,-12.56,33.88,1.75,19.19,-6.51,-0.85,6.66,30.81,-355.62,132.44,39.38,17.00,3.25,-6.30,-1.54,1.08,-11.44,-10.13,-9.94,33.88,1.75,19.19,-7.08,0.71,-3.82,-46.06,-101.00,46.38,40.75,4.69,9.06,walk
47.70,-6.42,-1.21,0.99,-15.13,-5.00,-7.19,33.56,3.25,17.69,-7.38,-1.77,7.38,83.87,-333.56,93.69,39.38,17.00,3.25,-6.80,-1.11,0.68,-20.81,1.81,-2.37,33.56,3.25,17.69,-5.39,0.60,-4.37,-104.75,-106.81,17.62,40.75,4.69,9.06,walk
47.73,-7.16,-1.50,0.19,-21.31,4.62,-1.31,33.56,3.25,17.69,-11.62,-1.23,10.23,119.56,-330.19,33.63,38.88,10.69,-9.06,-7.64,-2.22,0.10,-20.06,5.87,-1.31,34.25,2.50,18.87,-5.09,-2.42,-2.98,-130.19,-97.25,-4.81,41.69,3.19,5.06,walk
47.76,-8.05,-2.48,0.29,-20.12,6.25,0.37,34.25,2.50,18.87,-12.52,1.04,11.12,146.31,-296.75,12.88,38.88,10.69,-9.06,-8.31,-2.61,0.48,-18.25,6.25,2.62,34.25,2.50,18.87,-4.31,-2.97,-1.62,-13.25,-44.44,2.87,41.69,3.19,5.06,walk
47.79,-8.48,-2.50,0.70,-15.69,4.75,4.94,33.88,2.19,18.00,-13.29,1.22,9.69,147.81,-230.00,49.44,34.75,7.37,-18.50,-8.66,-2.32,0.92,-13.44,-0.13,7.37,33.88,2.19,18.00,-5.29,-1.31,-1.17,62.69,-7.81,11.31,42.50,2.19,1.19,walk
47.82,-9.53,-1.52,1.51,-12.50,-4.44,8.06,33.88,2.19,18.00,-22.53,-6.27,12.02,163.56,-130.56,102.62,29.75,4.75,-25.56,-9.65,-1.39,1.50,-10.94,-5.19,8.81,33.88,2.19,18.00,-8.15,1.10,2.09,62.63,28.87,5.87,42.69,2.19,1.69,walk
47.85,-9.70,-1.42,1.58,-12.69,-4.87,9.50,33.88,2.50,19.06,-28.17,-4.60,7.75,159.75,-158.06,130.69,29.75,4.75,-25.56,-9.78,-1.59,1.63,-15.06,-5.12,8.63,33.88,2.50,19.06,-13.01,4.60,12.55,57.13,69.06,42.56,42.69,2.19,1.69,walk
47.88,-10.32,-2.19,1.57,-18.12,-8.06,4.25,33.88,2.50,19.06,-35.64,-11.12,-14.49,33.81,-182.00,108.19,26.06,-1.50,-29.19,-10.75,-2.71,1.40,-20.69,-8.69,2.37,34.56,1.37,18.25,-11.62,2.02,15.86,-121.62,-20.25,42.19,42.88,1.37,2.75,walk
47.91,-10.80,-3.16,1.37,-20.81,-8.44,1.69,34.56,1.37,18.25,-11.69,-4.39,-13.48,-161.37,164.62,8.13,26.06,-1.50,-29.19,-11.13,-3.20,2.27,-10.19,-8.94,2.56,34.56,1.37,18.25,-5.88,-1.76,5.99,-104.31,-14.00,5.87,42.88,1.37,2.75,walk
47.94,-12.16,-2.48,3.32,1.19,-10.75,0.62,34.56,1.37,18.25,-3.16,-5.20,21.83,-146.44,190.25,21.94,23.06,-7.37,-30.87,-11.64,-0.01,4.05,10.25,-28.37,-11.94,34.56,0.25,18.25,-3.61,0.68,-3.11,-86.69,43.69,39.44,42.06,-1.06,3.56,walk
47.97,-11.15,0.48,3.80,4.06,-39.25,-18.06,34.56,0.25,18.25,-5.75,-25.00,14.64,-67.81,231.37,-69.50,25.25,-5.19,-27.75,-11.19,0.59,3.35,-20.81,-26.81,-20.12,34.56,0.25,18.25,-23.96,-10.53,4.77,-196.75,103.69,-28.19,41.25,-3.25,2.75,walk
48.00,-12.59,-1.01,-0.01,-30.69,-12.25,-19.37,35.38,1.06,18.06,1.25,2.98,7.29,-108.00,61.50,-38.81,25.25,-5.19,-27.75,-12.11,-2.58,-3.14,-35.63,4.75,-22.06,35.38,1.06,18.06,-2.16,-8.09,-9.32,-132.50,-126.37,44.94,41.25,-3.25,2.75,walk
48.03,-10.06,-2.23,-5.94,-12.56,3.37,-13.50,35.38,1.06,18.06,-7.21,-0.91,9.05,-19.94,49.88,-25.81,31.25,-0.88,-22.37,-8.80,-1.96,-6.31,-12.56,3.37,-13.50,35.38,1.00,18.37,-5.36,5.21,-0.91,226.19,113.69,30.81,41.06,-2.06,5.19,walk
48.06,-8.69,0.22,-3.35,12.00,-20.06,-11.63,35.38,1.00,18.37,-5.04,0.73,8.68,-12.81,22.44,-14.63,31.25,-0.88,-22.37,-9.08,1.03,-1.74,0.25,-22.25,-7.94,35.38,1.00,18.37,-12.93,7.11,-2.03,18.94,78.69,1.12,41.06,-2.06,5.19,walk
48.09,-10.19,0.39,2.18,-19.25,-1.06,-7.31,34.88,1.37,17.19,-4.98,0.54,8.50,1.06,9.75,-10.69,32.75,1.00,-20.87,-10.19,0.39,2.18,-29.19,12.88,-6.31,34.88,1.37,17.19,-8.64,1.62,-0.49,-19.00,83.37,13.56,42.88,-3.87,5.56,walk
48.12,-10.50,-1.02,0.95,-36.88,23.37,-5.69,34.88,1.37,17.19,-4.92,-0.04,8.77,-4.19,8.50,-7.44,31.19,1.75,-20.87,-10.47,-2.23,-1.15,-19.37,20.50,0.94,34.88,1.37,17.19,-9.16,2.02,-0.14,-37.69,108.25,0.62,44.25,-4.69,10.00,walk
48.15,-10.21,-2.82,-2.31,-2.31,8.88,11.50,35.25,1.00,18.06,-5.06,0.79,8.48,-1.81,9.13,-7.62,31.19,1.75,-20.87,-10.21,-2.82,-2.31,-3.56,1.69,13.88,35.25,1.00,18.06,-9.39,-1.48,0.75,-0.37,94.12,10.63,44.25,-4.69,10.00,walk
48.18,-8.56,-2.16,-0.82,-8.06,-6.81,12.19,35.25,1.00,18.06,-5.12,0.33,8.51,1.56,8.94,-6.75,31.50,1.75,-19.69,-7.86,-1.89,-0.12,-8.06,-6.81,12.19,35.88,0.69,18.37,-9.38,-0.62,0.77,73.44,95.31,6.06,41.06,-4.56,12.19,walk
48.21,-6.44,-1.66,1.11,-5.31,-6.44,5.56,35.88,0.69,18.37,-5.05,0.86,8.15,3.00,7.31,-6.00,31.50,1.75,-19.69,-6.18,-1.69,1.09,1.19,2.00,1.56,35.88,0.69,18.37,-9.11,0.33,0.60,70.25,87.31,-4.69,41.06,-4.56,12.19,walk
48.24,-6.33,-1.58,1.02,3.94,6.50,1.31,36.25,0.25,18.87,-5.07,0.70,8.26,2.00,17.87,-7.31,32.38,2.19,-20.06,-6.53,-1.42,0.90,8.00,10.69,2.06,36.25,0.25,18.87,-9.40,0.70,1.83,64.19,67.69,-5.81,39.19,-5.25,17.19,walk
48.27,-7.43,-0.77,0.39,19.69,16.94,4.75,36.25,0.25,18.87,-5.18,0.53,8.20,4.50,18.31,-8.69,32.75,2.19,-20.06,-7.62,-0.55,0.30,23.00,18.69,4.31,36.25,0.25,18.87,-8.83,0.45,1.47,32.56,73.37,5.06,38.50,-3.75,19.50,walk
48.30,-7.76,-0.40,0.86,18.69,17.06,1.37,35.19,0.75,19.19,-5.35,0.40,8.19,5.25,13.75,-10.44,32.75,2.19,-20.06,-7.76,-0.40,0.86,16.50,15.69,0.06,35.19,0.75,19.19,-9.73,0.96,0.93,31.75,68.00,5.69,38.50,-3.75,19.50,walk
48.33,-7.84,-0.53,1.40,13.81,19.06,-1.44,35.19,0.75,19.19,-5.29,0.88,8.18,8.56,12.56,-10.56,33.38,3.25,-18.87,-8.26,-0.65,1.55,13.81,19.06,-1.44,35.56,1.06,19.19,-9.37,-0.87,0.11,32.56,66.69,4.69,37.75,-3.06,22.19,walk
48.36,-8.79,-0.73,1.62,18.50,19.62,-2.75,35.56,1.06,19.19,-5.41,0.39,8.42,10.75,14.38,-12.63,33.38,3.25,-18.87,-9.70,-0.85,1.05,25.75,17.00,-4.00,35.56,1.06,19.19,-9.82,-0.09,0.52,67.56,65.69,-2.75,37.75,-3.06,22.19,walk
48.39,-9.95,-0.85,0.90,28.94,15.88,-5.25,36.69,0.75,20.37,-5.12,0.88,8.62,18.75,21.25,-16.19,33.00,3.00,-18.19,-10.14,-0.83,0.90,28.37,14.19,-5.62,36.69,0.75,20.37,-10.52,1.01,0.92,90.19,66.06,-7.81,36.06,-2.75,24.56,walk
48.42,-10.82,-0.95,0.70,23.44,9.81,-2.06,36.69,0.75,20.37,-5.12,1.84,8.90,19.56,42.00,-21.31,33.06,3.75,-18.06,-10.86,-0.81,0.21,22.87,6.25,2.69,36.69,0.75,20.37,-10.58,0.72,2.56,87.00,49.56,-10.75,35.25,-0.88,27.19,walk
48.45,-10.69,-0.70,0.41,22.94,4.94,3.44,34.38,1.87,20.37,-4.91,1.26,9.50,-3.12,79.50,-33.81,33.06,3.75,-18.06,-10.76,-0.70,0.88,21.50,-1.75,2.37,34.38,1.87,20.37,-11.23,-0.16,1.97,99.62,34.69,-13.50,35.25,-0.88,27.19,walk
48.48,-11.65,-1.51,2.53,23.25,-9.69,7.62,34.38,1.87,20.37,-4.78,2.09,9.44,-41.13,129.87,-54.06,34.56,3.06,-18.19,-11.98,-1.97,2.89,23.25,-9.69,7.62,35.56,1.50,21.56,-11.31,-0.40,5.12,100.06,25.87,-14.88,35.00,0.88,27.56,walk
48.51,-11.97,-2.44,3.18,33.25,-18.81,17.00,35.56,1.50,21.56,-3.60,2.60,10.82,-81.56,185.94,-98.06,34.56,3.06,-18.19,-11.95,-1.36,2.28,37.88,-15.69,16.87,35.56,1.50,21.56,-13.14,1.35,8.51,93.50,5.62,-21.62,35.00,0.88,27.56,walk
48.54,-11.65,-0.02,0.94,42.13,-14.69,17.25,35.56,1.50,21.56,-7.71,-0.92,14.26,-113.62,305.56,-179.12,34.50,4.56,-13.19,-11.81,1.13,-1.01,45.56,-10.13,18.69,35.56,1.06,21.19,-13.79,-0.90,6.28,74.31,-44.75,-35.19,35.00,4.19,30.37,walk
48.57,-10.63,1.19,-3.82,17.62,2.19,16.00,35.56,1.06,21.19,-10.71,-4.43,15.50,-58.50,487.69,-168.19,36.38,9.56,-4.00,-8.18,-0.95,-5.34,-0.69,1.94,16.25,35.56,1.06,21.19,-14.37,2.48,0.75,43.63,-164.12,-13.56,34.38,6.37,28.25,walk
48.60,-8.19,-2.14,-4.92,-6.31,2.12,19.56,36.75,2.19,22.06,-16.57,5.98,20.55,-36.25,568.50,-178.69,36.38,9.56,-4.00,-8.63,-3.54,-4.24,4.75,-2.00,20.00,36.75,2.19,22.06,-17.13,4.49,-7.06,34.75,-196.19,26.44,34.38,6.37,28.25,walk
48.63,-10.23,-5.33,-2.05,16.37,-6.25,15.56,36.75,2.19,22.06,-37.24,0.34,36.69,-96.06,370.06,-183.06,34.19,15.56,12.38,-11.63,-1.95,0.03,16.94,-0.56,12.56,35.69,1.37,22.00,-15.30,2.34,-2.89,-135.19,-160.25,31.69,37.88,8.88,23.06,walk
48.66,-11.64,-0.58,0.30,26.56,3.37,5.44,35.69,1.37,22.00,3.53,11.54,6.95,69.75,-243.75,102.87,34.19,15.56,12.38,-11.43,0.52,0.35,25.19,-3.69,1.31,35.69,1.37,22.00,-15.05,-1.71,-2.79,-127.37,-149.94,38.56,37.88,8.88,23.06,walk
48.69,-10.30,1.79,-0.27,20.31,-8.00,-3.25,37.19,0.25,21.50,0.94,-1.51,6.91,-75.00,-223.56,159.00,25.50,18.87,26.50,-9.80,1.68,-0.73,12.88,-7.75,-12.81,37.19,0.25,21.50,-10.74,-1.98,-1.24,-39.44,-147.25,40.81,41.19,8.19,16.87,walk
48.72,-7.00,-0.13,-0.59,9.13,-10.56,-17.87,37.19,0.25,21.50,-6.27,0.89,10.88,51.81,-257.19,157.06,33.75,18.06,21.69,-7.00,-0.13,-0.59,6.75,-10.56,-17.25,37.19,0.25,21.50,-7.53,-2.38,-2.46,-15.56,-149.81,39.81,45.56,4.87,12.19,walk
48.75,-6.69,-0.91,0.33,4.31,-9.38,-15.88,36.38,2.19,21.50,-6.06,-1.90,8.17,46.00,-369.37,118.12,33.75,18.06,21.69,-6.64,-1.14,1.07,-2.50,-8.75,-12.75,36.38,2.19,21.50,-7.04,-1.06,-3.15,7.00,-102.37,36.06,45.56,4.87,12.19,walk
48.78,-7.30,-0.90,1.57,-11.00,-5.56,-8.69,36.38,2.19,21.50,-7.14,-2.90,8.25,90.25,-380.87,85.87,43.88,14.69,12.06,-7.51,-0.99,1.41,-16.87,-2.00,-5.75,36.75,1.25,21.50,-5.01,1.13,-4.44,-49.31,-95.94,-2.12,45.56,4.56,6.25,walk
48.81,-7.79,-1.32,0.84,-25.37,2.62,-2.37,36.75,1.25,21.50,-11.73,-1.78,10.82,130.87,-352.00,47.38,43.88,14.69,12.06,-7.79,-1.32,0.84,-26.06,2.56,-2.75,36.75,1.25,21.50,-4.31,-1.18,-4.35,-113.56,-95.62,-25.69,45.56,4.56,6.25,walk
48.84,-8.05,-2.24,0.56,-23.00,0.50,-3.19,37.19,1.69,21.50,-13.64,1.23,11.47,149.56,-325.81,25.75,48.56,12.56,-8.00,-8.64,-2.85,0.78,-19.56,0.69,-1.75,37.19,1.69,21.50,-4.69,-2.54,-2.18,-57.75,-21.50,-5.19,47.75,3.37,3.19,walk
48.88,-8.82,-2.73,1.23,-8.25,-1.19,6.12,37.19,1.69,21.50,-16.69,-2.72,10.66,127.94,-228.69,75.81,45.19,7.75,-27.00,-8.80,-2.54,1.56,-9.25,-2.75,7.81,36.00,3.19,22.25,-6.50,0.30,0.83,51.25,21.00,1.81,47.06,4.19,1.25,walk
48.92,-9.01,-1.88,1.77,-10.00,-1.69,7.81,36.00,3.19,22.25,-23.89,-3.80,10.46,136.50,-142.81,131.25,45.19,7.75,-27.00,-9.33,-1.67,1.67,-8.63,1.81,5.81,36.00,3.19,22.25,-11.46,2.85,9.41,104.50,55.31,20.31,47.06,4.19,1.25,walk
48.95,-9.94,-1.81,1.50,-9.13,1.62,4.19,36.75,1.25,21.50,-33.22,-2.93,1.40,42.88,-171.87,145.87,35.00,1.87,-38.88,-10.39,-1.95,1.28,-10.44,0.75,3.00,36.75,1.25,21.50,-12.09,3.16,18.53,-65.69,13.81,46.50,46.69,4.19,0.88,walk
48.98,-11.37,-3.13,1.03,-16.06,-2.81,1.87,36.75,1.25,21.50,-0.99,-1.84,-16.19,43.56,-97.75,85.69,27.69,-4.75,-44.75,-11.50,-3.50,1.30,-13.25,-3.00,0.75,36.38,1.25,22.00,-11.54,-2.43,8.58,-121.12,5.25,3.37,45.88,3.75,1.69,walk
49.01,-12.37,-3.70,2.68,5.62,-10.31,-6.00,36.38,1.25,22.00,-23.15,-0.54,7.00,-134.81,237.75,-19.94,27.69,-4.75,-44.75,-12.60,-3.29,3.32,14.75,-21.00,-11.88,36.38,1.25,22.00,-4.97,-2.66,1.99,-92.94,-19.00,13.25,45.88,3.75,1.69,walk
49.04,-11.50,-1.15,4.60,21.81,-40.56,-21.81,36.38,0.88,22.00,4.69,-15.36,15.47,-143.75,149.56,32.69,22.37,-5.87,-47.06,-10.80,-0.45,4.78,16.12,-43.63,-23.75,36.38,0.88,22.00,-5.97,1.70,-6.02,-80.25,29.56,55.38,46.69,2.69,1.69,walk
49.07,-10.49,-0.32,3.74,-8.44,-23.81,-23.75,36.38,0.88,22.00,-30.68,8.09,8.99,-98.12,235.94,-97.56,30.75,-1.56,-42.06,-10.92,-1.39,1.40,-22.25,-10.00,-25.00,36.38,0.88,22.00,-24.10,-6.38,9.56,-105.37,125.25,2.87,46.25,2.69,3.25,walk
49.10,-10.86,-1.94,-0.22,-26.81,8.75,-30.87,35.88,1.69,20.25,-6.83,-3.42,8.97,-130.62,83.62,-63.69,30.75,-1.56,-42.06,-10.93,-2.03,-5.27,-14.44,17.56,-29.37,35.88,1.69,20.25,-1.95,-7.31,-9.09,-181.75,-79.87,42.81,46.25,2.69,3.25,walk
49.13,-9.48,0.09,-6.05,10.81,3.31,-15.94,35.88,1.69,20.25,-5.46,-3.41,9.85,-29.56,31.00,-36.88,38.19,3.56,-38.38,-9.61,0.93,-4.89,13.50,-9.06,-11.88,35.69,2.75,20.00,-12.62,8.85,0.21,155.75,100.25,20.00,46.69,2.69,4.75,walk
49.17,-9.90,2.14,-1.95,-2.56,-27.62,-5.94,35.69,2.75,20.00,-5.73,-0.33,9.44,-6.81,6.37,-25.94,38.19,3.56,-38.38,-9.68,1.54,0.76,-11.00,-29.00,-5.12,35.69,2.75,20.00,-10.56,3.56,-0.70,24.25,68.56,13.06,46.69,2.69,4.75,walk
49.19,-9.65,0.02,2.04,-29.19,-9.50,-6.50,36.00,2.75,20.25,-4.90,0.35,8.76,-3.00,6.56,-9.69,39.25,8.38,-36.50,-9.69,-1.35,1.39,-33.81,1.81,-6.06,36.00,2.75,20.25,-9.34,1.91,-0.19,5.19,86.62,5.19,45.56,2.56,7.56,walk
49.23,-10.41,-2.50,-1.27,-18.25,10.31,5.94,36.00,2.75,20.25,-5.60,0.47,8.34,0.44,13.50,-9.75,39.25,7.87,-35.00,-10.07,-2.22,-1.66,-10.50,3.81,11.56,35.69,2.75,19.56,-9.69,-0.33,-0.66,-18.25,88.37,0.88,44.88,3.00,9.56,walk
49.26,-9.48,-1.96,-1.29,-8.44,-11.06,14.88,35.69,2.75,19.56,-5.38,0.08,8.38,-3.62,13.63,-6.62,39.25,7.87,-35.00,-8.79,-1.69,-0.80,-9.63,-14.31,12.19,35.69,2.75,19.56,-9.44,-0.87,-0.07,27.12,86.37,4.44,44.88,3.00,9.56,walk
49.29,-6.64,-1.26,1.32,-8.44,-11.75,5.44,36.00,1.69,19.50,-5.44,0.75,8.16,3.50,7.06,-4.87,39.56,9.69,-35.25,-6.37,-1.30,1.48,-5.06,-8.94,2.94,36.00,1.69,19.50,-9.18,0.89,-0.16,49.00,86.25,-2.31,44.06,3.00,13.38,walk
49.33,-6.21,-1.45,1.02,4.31,7.31,2.81,36.00,1.69,19.50,-5.42,0.36,7.95,6.19,4.94,-4.50,39.56,10.06,-35.00,-6.50,-1.45,0.80,4.31,7.31,2.81,35.25,2.06,18.69,-9.33,0.01,0.14,57.00,71.31,-5.94,42.56,3.69,16.19,walk
49.36,-7.85,-0.91,0.56,7.87,16.75,5.44,35.25,2.06,18.69,-5.14,0.45,8.33,7.06,4.06,-4.31,39.56,10.06,-35.00,-8.27,-0.64,0.71,5.19,16.81,6.00,35.25,2.06,18.69,-8.73,-0.01,0.00,32.38,75.56,-1.06,42.56,3.69,16.19,walk
49.39,-7.95,-0.41,1.03,2.12,16.31,1.94,35.69,1.25,20.19,-5.24,0.28,8.27,4.06,10.19,-6.12,40.00,9.25,-34.69,-7.87,-0.54,1.09,3.00,17.50,-0.62,35.69,1.25,20.19,-9.30,0.28,0.56,35.75,84.19,1.75,42.19,4.06,19.00,walk
49.42,-7.83,-1.20,1.33,9.06,17.75,-3.06,35.69,1.25,20.19,-5.56,0.66,8.11,3.50,11.63,-6.69,40.38,9.25,-35.25,-7.99,-1.34,1.37,13.06,17.19,-3.00,35.69,1.25,20.19,-9.07,-0.35,0.98,26.50,66.00,2.25,42.19,4.06,19.00,walk
49.45,-8.52,-1.24,1.17,19.00,17.56,-1.94,33.75,2.37,21.00,-5.02,0.48,8.62,7.94,13.25,-10.38,40.38,9.25,-35.25,-9.04,-0.93,1.09,21.25,18.94,-1.75,33.75,2.37,21.00,-9.53,-0.18,1.17,43.19,62.75,-3.25,41.19,5.50,21.69,walk
49.48,-10.01,-0.42,1.48,19.37,20.06,-1.62,33.75,2.37,21.00,-5.03,1.47,8.58,10.63,26.50,-15.13,41.06,8.88,-33.19,-10.28,-0.45,1.34,17.44,18.06,-0.44,34.19,1.69,21.00,-10.37,0.22,1.32,76.81,60.31,-8.19,40.00,6.25,22.87,walk
49.51,-10.42,-0.86,0.71,19.00,11.56,2.94,34.19,1.69,21.00,-5.04,1.81,8.81,5.19,48.75,-30.12,41.06,8.88,-33.19,-10.29,-0.90,0.74,20.06,7.12,2.37,34.19,1.69,21.00,-10.48,1.12,2.72,81.37,47.44,-11.63,40.00,6.25,22.87,walk
49.54,-10.32,-0.56,1.55,22.69,-1.50,-1.87,34.19,3.19,21.00,-4.96,0.80,8.95,-31.25,87.25,-45.94,41.06,8.88,-35.00,-11.16,-0.67,2.52,21.31,-2.69,-2.12,34.19,3.19,21.00,-11.19,-0.63,3.04,86.75,32.06,-10.56,39.00,8.75,24.87,walk
49.58,-11.64,-1.46,3.36,13.69,-7.50,5.75,34.19,3.19,21.00,-4.78,1.85,9.68,-73.19,150.06,-88.25,43.00,11.00,-30.87,-11.33,-2.20,3.60,17.94,-14.81,13.13,33.75,3.87,21.37,-11.74,-1.97,7.53,80.69,18.75,-18.31,37.19,11.25,26.37,walk
49.61,-11.47,-1.89,3.01,45.31,-10.19,13.44,33.75,3.87,21.37,-4.74,1.97,11.62,-97.06,236.12,-150.37,43.00,11.00,-30.87,-11.66,-1.44,1.86,60.44,-9.63,14.75,33.75,3.87,21.37,-13.66,0.19,7.72,119.50,-31.06,-34.81,37.19,11.25,26.37,walk
49.64,-12.38,0.84,-2.89,61.06,0.00,21.56,33.75,3.87,21.37,-11.14,-5.55,14.95,-93.44,378.87,-195.62,44.75,15.19,-25.87,-11.76,0.65,-4.04,41.88,5.00,23.12,33.75,3.87,21.37,-15.29,1.65,1.73,57.56,-161.06,-31.31,36.00,14.19,26.75,walk
49.67,-9.25,-1.33,-4.86,-0.06,-5.12,22.25,33.75,3.87,21.37,-16.96,6.22,17.43,-38.75,526.44,-170.44,47.38,22.87,-13.38,-9.39,-2.53,-4.28,-15.75,-6.25,20.50,33.75,3.87,21.37,-16.32,5.87,-5.06,78.19,-172.87,6.37,36.00,14.19,26.75,walk
49.70,-11.16,-5.22,-2.43,-17.19,-11.06,13.81,33.50,3.87,21.50,-19.57,6.24,14.28,-100.69,525.87,-175.06,47.38,22.87,-13.38,-11.45,-5.13,-1.67,-7.06,-12.63,10.94,33.50,3.87,21.50,-15.29,3.35,-3.30,-39.13,-166.25,40.50,37.50,18.06,23.25,walk
49.74,-11.54,-1.87,0.26,13.31,-7.31,7.69,33.50,3.87,21.50,-4.80,19.16,13.53,56.13,-54.81,40.75,44.38,30.25,9.19,-11.18,-0.61,0.75,24.19,-10.38,5.94,34.19,3.56,20.00,-14.48,-2.26,-3.19,-127.50,-138.25,39.50,39.69,19.87,16.69,walk
49.77,-10.45,1.36,0.73,34.44,-16.44,1.19,34.19,3.56,20.00,1.94,-4.52,5.01,-106.19,-172.50,144.87,44.38,30.25,9.19,-10.01,1.47,0.36,30.12,-14.81,-2.56,34.19,3.56,20.00,-9.58,-1.70,-1.82,-61.94,-123.25,50.25,39.69,19.87,16.69,walk
49.80,-8.40,1.02,-0.43,10.81,-11.56,-10.38,34.88,3.56,19.56,-6.55,2.96,10.28,79.44,-203.75,145.62,38.75,34.00,15.50,-7.29,-0.06,-0.45,1.75,-9.50,-11.88,34.88,3.56,19.56,-8.01,-3.21,-2.10,-57.94,-123.56,43.19,43.75,17.00,14.38,walk
49.83,-6.87,-0.88,0.24,-4.12,-10.38,-9.50,34.88,3.56,19.56,-5.45,-2.29,7.51,33.50,-323.94,109.94,46.75,28.50,9.69,-6.67,-1.38,0.93,-4.12,-11.44,-7.69,34.50,3.87,20.00,-7.96,-2.99,-2.12,-44.06,-99.50,31.87,45.75,12.88,12.38,walk
49.86,-6.84,-1.38,1.08,-10.00,-6.50,-4.00,34.50,3.87,20.00,-7.49,-3.51,7.70,97.12,-348.87,104.50,46.75,28.50,9.69,-7.57,-1.27,0.63,-24.62,2.81,-0.56,34.50,3.87,20.00,-7.45,-0.06,-3.13,-59.75,-92.81,16.69,45.75,12.88,12.38,walk
49.89,-7.83,-1.48,0.29,-25.50,5.00,1.50,36.00,3.56,18.75,-9.23,-3.26,8.63,128.81,-337.50,60.25,51.06,22.50,-1.75,-8.38,-2.15,-0.39,-22.00,3.87,2.12,36.00,3.56,18.75,-6.08,-0.78,-2.65,-86.37,-102.37,-6.12,46.19,10.75,8.50,walk
49.92,-8.62,-2.55,-0.18,-16.37,0.44,2.25,36.00,3.56,18.75,-10.24,-0.42,9.82,125.50,-316.37,17.94,49.25,16.19,-17.00,-8.73,-2.65,0.16,-14.56,-3.06,2.25,36.00,3.56,18.75,-6.23,-2.15,-0.71,-11.06,-54.81,3.31,46.19,10.75,8.50,walk
49.95,-8.71,-2.49,1.34,-10.19,-9.69,4.19,34.88,3.56,18.00,-11.68,0.98,10.50,120.06,-272.69,46.31,49.25,16.19,-17.00,-8.72,-2.38,1.57,-8.31,-12.50,5.62,34.88,3.56,18.00,-5.84,-1.43,0.46,54.44,-25.69,10.94,47.19,8.88,5.25,walk
49.99,-8.87,-1.75,2.14,-8.19,-14.25,7.87,34.88,3.56,18.00,-9.08,-1.96,9.78,99.56,-217.00,95.31,45.19,13.25,-27.50,-8.86,-1.52,2.17,-9.94,-14.25,7.94,36.00,2.87,19.56,-6.03,0.05,0.64,66.75,-11.31,2.81,48.50,8.19,2.87,walk
